Time,header.seq,header.stamp.secs,header.stamp.nsecs,header.frame_id,orientation.x,orientation.y,orientation.z,orientation.w,angular_velocity.x,angular_velocity.y,angular_velocity.z,linear_acceleration.x,linear_acceleration.y,linear_acceleration.z,magnetic_field.x,magnetic_field.y,magnetic_field.z
1646352410.3954766,8242,1646352410,390793323,,0.010698390090682856,-0.006742173638641217,-0.9984978928601418,0.053310838466027924,8.2e-05,0.001073,-5.1e-05,0.217,-0.139,-9.448,-3.0480000000000003e-05,3.4700000000000002e-06,1.752e-05
1646352410.4210403,8243,1646352410,415895700,,0.01071668848905549,-0.0067587611523801374,-0.998498066972815,0.05330180097393902,-0.00061,-0.000212,-0.000525,0.224,-0.159,-9.469,-3.0480000000000003e-05,4.1000000000000006e-06,1.781e-05
1646352410.4454696,8244,1646352410,440776348,,0.010726975002368473,-0.006784154471076478,-0.9984964071902672,0.053327592140834844,-0.00014,-0.000499,0.000577,0.197,-0.151,-9.449,-3.0480000000000003e-05,3.4700000000000002e-06,1.7820000000000002e-05
1646352410.4704328,8245,1646352410,465794563,,0.010718904764547302,-0.006793054074713315,-0.9984950382143222,0.053353708009525005,-0.001992,-0.00121,-3e-05,0.195,-0.159,-9.467,-3.066e-05,3.38e-06,1.811e-05
1646352410.4964592,8246,1646352410,490723133,,0.010701359299736089,-0.006794174698186239,-0.9984961424700366,0.05333641881271238,-0.000164,-0.00241,0.000979,0.209,-0.153,-9.493,-3.057000000000001e-05,3.5600000000000002e-06,1.771e-05
1646352410.5223804,8247,1646352410,516632318,,0.010701596454653278,-0.0067938011461386285,-0.9984942800694793,0.05337127287071994,-0.001133,-0.000743,0.001489,0.168,-0.159,-9.506,-3.057000000000001e-05,3.38e-06,1.772e-05
1646352410.5460842,8248,1646352410,541283130,,0.010692358049949688,-0.006785648022979368,-0.9984948915267445,0.05336272158759035,-0.001802,-8.5e-05,0.000107,0.183,-0.146,-9.474,-3.065e-05,3.7400000000000006e-06,1.7610000000000002e-05
1646352410.5683799,8249,1646352410,565667390,,0.010683703828143707,-0.00678602178856718,-0.9984945122276613,0.053371503932739046,-0.000659,-0.000415,-9.2e-05,0.159,-0.172,-9.485,-3.057000000000001e-05,3.29e-06,1.742e-05
1646352410.595539,8250,1646352410,591049432,,0.010683822264939804,-0.006785835321725509,-0.9984935805671116,0.05338893094141087,-0.0011,0.002107,0.00158,0.157,-0.135,-9.498,-3.057000000000001e-05,3.5600000000000002e-06,1.7610000000000002e-05
1646352410.6204038,8251,1646352410,615800619,,0.010682483531393852,-0.006759601596594072,-0.9984932919309115,0.053397924124712205,-8e-06,-0.000126,3.3e-05,0.207,-0.144,-9.467,-3.049e-05,3.2800000000000004e-06,1.792e-05
1646352410.646429,8252,1646352410,641242027,,0.010698919586765096,-0.006741333368254671,-0.9984937027570656,0.053389260142644036,-0.001579,0.002012,-0.000698,0.217,-0.11,-9.442,-3.03e-05,4.01e-06,1.752e-05
1646352410.6706204,8253,1646352410,665884256,,0.0107147143410637,-0.0067146324369249544,-0.9984955686599314,0.053354549705779464,0.000313,0.001179,0.001339,0.209,-0.143,-9.449,-3.058e-05,3.1e-06,1.742e-05
1646352410.6952538,8254,1646352410,690791606,,0.01073196546639854,-0.006713979564501941,-0.998496791548006,0.0533282726513173,0.001422,0.000158,-0.001196,0.244,-0.102,-9.459,-3.057000000000001e-05,3.6499999999999998e-06,1.771e-05
1646352410.7205439,8255,1646352410,715919733,,0.010739748169622485,-0.006696085817303354,-0.9984968216604749,0.05332839185565378,0.00133,0.000683,-0.000372,0.212,-0.087,-9.466,-3.0480000000000003e-05,3.4700000000000002e-06,1.7820000000000002e-05
1646352410.7456522,8256,1646352410,740905284,,0.01074875148191098,-0.0067046140586931365,-0.9984980719872307,0.0533020893557388,0.001844,0.000561,-0.001749,0.211,-0.126,-9.479,-3.057000000000001e-05,3.38e-06,1.732e-05
1646352410.7705274,8257,1646352410,765752077,,0.010749392380802221,-0.006713046181769338,-0.9984966176552554,0.05332813615175155,0.001042,-0.000636,0.001178,0.21,-0.148,-9.453,-3.057000000000001e-05,3.2000000000000003e-06,1.7820000000000002e-05
1646352410.795124,8258,1646352410,790711879,,0.010758977854710305,-0.006730100430691643,-0.9984968786216527,0.05331916659636575,0.000359,0.00037,-0.000891,0.17,-0.125,-9.463,-3.066e-05,3.4700000000000002e-06,1.771e-05
1646352410.8203113,8259,1646352410,815724611,,0.010750788504458004,-0.006739186759787995,-0.998496441565938,0.05332785471504187,0.001535,-0.001342,-0.000324,0.189,-0.155,-9.483,-3.057000000000001e-05,3.4700000000000002e-06,1.742e-05
1646352410.8463328,8260,1646352410,841118097,,0.01073469866634002,-0.006766354403199618,-0.9984969039701872,0.0533189971265766,0.001489,-0.000611,-0.000721,0.208,-0.146,-9.475,-3.0390000000000002e-05,3.92e-06,1.772e-05
1646352410.8707602,8261,1646352410,865932464,,0.010726975002368473,-0.006784154471076478,-0.9984964071902672,0.053327592140834844,0.000574,0.000168,-0.000139,0.181,-0.161,-9.479,-3.066e-05,3.38e-06,1.8010000000000002e-05
1646352410.8956542,8262,1646352410,890880823,,0.010727846387395214,-0.0068016751382966485,-0.9984967539637336,0.053318691385747144,1.9e-05,-0.000631,0.000549,0.166,-0.173,-9.463,-3.066e-05,3.5600000000000002e-06,1.7610000000000002e-05
1646352410.9203773,8263,1646352410,915689468,,0.010737728436525675,-0.0068182607562595,-0.9984946865431777,0.05335328905816572,0.000433,0.001233,0.00135,0.19,-0.171,-9.506,-3.057000000000001e-05,3.38e-06,1.762e-05
1646352410.945099,8264,1646352410,940796613,,0.010729301847318956,-0.0068277220892916275,-0.9984961102251878,0.05332712403748945,-0.001033,-0.000504,-0.000388,0.182,-0.186,-9.479,-3.0480000000000003e-05,3.6499999999999998e-06,1.762e-05
1646352410.9706652,8265,1646352410,965783596,,0.010729480592988368,-0.0068274411944863195,-0.9984947137821661,0.0533532645862495,-0.000965,0.001255,0.000121,0.199,-0.157,-9.443,-3.057000000000001e-05,3.29e-06,1.772e-05
1646352410.9960718,8266,1646352410,991011142,,0.010737668935567084,-0.0068183544603575815,-0.9984951521004383,0.053344575546212275,-0.000447,0.000195,-0.00014,0.213,-0.145,-9.479,-3.083e-05,3.4700000000000002e-06,1.73e-05
1646352411.0205486,8267,1646352411,15872716,,0.010745510683730206,-0.0068003668085675085,-0.9984947185263758,0.053353407448336124,-0.000679,0.000571,-0.001288,0.213,-0.135,-9.454,-3.066e-05,3.5600000000000002e-06,1.8010000000000002e-05
1646352411.0456219,8268,1646352411,40778160,,0.010762183917030965,-0.006781724184000209,-0.9984932659546025,0.05337959776674523,-0.000933,-0.000579,0.000545,0.227,-0.121,-9.472,-3.066e-05,3.4700000000000002e-06,1.721e-05
1646352411.0702899,8269,1646352411,65762758,,0.010769558815563908,-0.006755022554550734,-0.9984928901802842,0.053388524353353714,-0.000993,-0.000719,-0.000357,0.229,-0.125,-9.465,-3.04e-05,3.2800000000000004e-06,1.773e-05
1646352411.0955615,8270,1646352411,90934276,,0.010768161103574278,-0.006728882069501711,-0.998493066684183,0.05338880628144821,-0.00101,9.3e-05,-0.001312,0.213,-0.09,-9.482,-3.0480000000000003e-05,3.92e-06,1.7910000000000003e-05
1646352411.1211827,8271,1646352411,115966796,,0.010766646397654919,-0.006702929494290727,-0.9984941741670194,0.05337166117017906,-0.000411,-0.001033,-0.001117,0.194,-0.118,-9.47,-3.0480000000000003e-05,3.4700000000000002e-06,1.772e-05
1646352411.145636,8272,1646352411,140913486,,0.010757467205664149,-0.006694683059904287,-0.9984943197647427,0.05337182323652098,0.000252,0.000198,-0.000872,0.182,-0.123,-9.485,-3.057000000000001e-05,3.2000000000000003e-06,1.762e-05
1646352411.1706614,8273,1646352411,165742397,,0.010739749631689818,-0.006686622528822011,-0.9984931545929203,0.053398193678103036,0.001122,-0.001049,0.001253,0.197,-0.111,-9.444,-3.057000000000001e-05,3.7400000000000006e-06,1.7610000000000002e-05
1646352411.195294,8274,1646352411,190755128,,0.01073980798307036,-0.006686528806571446,-0.9984926885677533,0.053406907172622906,0.001583,0.000428,0.000117,0.181,-0.138,-9.456,-3.066e-05,3.29e-06,1.7610000000000002e-05
1646352411.21947,8275,1646352411,216207265,,0.010723313263939906,-0.006704890539422574,-0.9984927454518385,0.05340685607248888,0.000469,-0.000739,0.000648,0.207,-0.153,-9.469,-3.057000000000001e-05,3.830000000000001e-06,1.771e-05
1646352411.2465658,8276,1646352411,241041421,,0.010724304050666943,-0.006722223937414017,-0.9984921621782162,0.05341538239715794,-0.000771,-0.001304,0.000451,0.167,-0.166,-9.481,-3.057000000000001e-05,3.5600000000000002e-06,1.771e-05
1646352411.270674,8277,1646352411,265825986,,0.010724946399259984,-0.006730656648917071,-0.9984907047265575,0.05344142925174918,-0.000571,0.001364,0.001824,0.204,-0.172,-9.457,-3.0480000000000003e-05,3.4700000000000002e-06,1.772e-05
1646352411.2962863,8278,1646352411,290882349,,0.010743188170197987,-0.006747335738483958,-0.9984913459809827,0.0534236779851175,-0.000445,-0.001468,0.000896,0.185,-0.17,-9.466,-3.065e-05,3.830000000000001e-06,1.7610000000000002e-05
1646352411.3204849,8279,1646352411,315889358,,0.010752774965987979,-0.006764389002311345,-0.9984916072816,0.053414708275562585,-0.000142,0.000869,-7e-06,0.2,-0.141,-9.519,-3.057000000000001e-05,3.7400000000000006e-06,1.7910000000000003e-05
1646352411.3433394,8280,1646352411,340492010,,0.010761954507871003,-0.006772635027263116,-0.9984914611872271,0.053414545642121315,0.000523,-0.00023,-0.000173,0.212,-0.145,-9.507,-3.0480000000000003e-05,3.4700000000000002e-06,1.752e-05
1646352411.370893,8281,1646352411,365702390,,0.010762538992526152,-0.006781160668072055,-0.9984904696366875,0.0534318786786993,0.000681,-0.001302,-0.000403,0.202,-0.14,-9.5,-3.058e-05,3.01e-06,1.7230000000000003e-05
1646352411.3955028,8282,1646352411,390906095,,0.01075352967566653,-0.006782097496453513,-0.9984928871153624,0.05338838013174217,-0.000379,-0.00091,0.000595,0.216,-0.135,-9.474,-3.075e-05,3.2000000000000003e-06,1.7610000000000002e-05
1646352411.4213285,8283,1646352411,415941238,,0.01074370733175735,-0.006765419007351655,-0.998494489658034,0.0533624960151492,-0.000973,0.000752,-0.000142,0.21,-0.136,-9.471,-3.066e-05,3.4700000000000002e-06,1.7610000000000002e-05
1646352411.4462183,8284,1646352411,441006898,,0.010734003648118174,-0.006748552660325049,-0.9984951601143042,0.053354038563007994,8.5e-05,0.000103,0.000227,0.189,-0.122,-9.436,-3.0480000000000003e-05,3.7400000000000006e-06,1.722e-05
1646352411.471662,8285,1646352411,465843200,,0.010715062600781686,-0.006723532968435,-0.9984964410845413,0.053337029157884075,-0.000394,-0.000484,0.000336,0.191,-0.127,-9.45,-3.057000000000001e-05,3.38e-06,1.7910000000000003e-05
1646352411.4961855,8286,1646352411,490780115,,0.010705883690999956,-0.006715286208561845,-0.9984965864000555,0.053337190898739284,0.000298,-0.00039,-0.000909,0.182,-0.111,-9.474,-3.057000000000001e-05,3.5600000000000002e-06,1.7910000000000003e-05
1646352411.5203643,8287,1646352411,515871286,,0.010705476761274616,-0.006706479259151579,-0.9984961794703302,0.05334599784814964,0.001157,-0.000233,-0.001326,0.181,-0.142,-9.471,-3.056e-05,4.01e-06,1.781e-05
1646352411.5453413,8288,1646352411,540879011,,0.010714831531875833,-0.006714445428858608,-0.9984946372952885,0.05337197673289164,0.000619,-3e-06,0.001482,0.181,-0.132,-9.468,-3.057000000000001e-05,3.5600000000000002e-06,1.771e-05
1646352411.570797,8289,1646352411,565888881,,0.01071517994693735,-0.006723345954289014,-0.9984955100256895,0.053354456200226046,0.000766,0.000127,0.000821,0.211,-0.177,-9.461,-3.057000000000001e-05,3.4700000000000002e-06,1.771e-05
1646352411.5958867,8290,1646352411,590831756,,0.010725349100196636,-0.006748925986002111,-0.9984947812880953,0.05336282062590934,0.001765,0.001609,0.000705,0.199,-0.147,-9.483,-3.057000000000001e-05,3.6499999999999998e-06,1.8010000000000002e-05
1646352411.6210573,8291,1646352411,615733385,,0.010717507964064779,-0.0067669135334158595,-0.9984952157138832,0.05335398861151148,-0.000743,-0.000146,-7.4e-05,0.185,-0.175,-9.469,-3.0390000000000002e-05,3.830000000000001e-06,1.752e-05
1646352411.6451726,8292,1646352411,640816450,,0.010718904764547302,-0.006793054074713315,-0.9984950382143222,0.053353708009525005,0.000512,-0.001293,0.000156,0.17,-0.163,-9.482,-3.0480000000000003e-05,3.830000000000001e-06,1.762e-05
1646352411.6704965,8293,1646352411,665784358,,0.0107192516482036,-0.006801954674715978,-0.9984959099398832,0.05333618743433139,0.000507,0.000195,0.000181,0.203,-0.184,-9.497,-3.0390000000000002e-05,3.830000000000001e-06,1.772e-05
1646352411.6952565,8294,1646352411,690724134,,0.0107192516482036,-0.006801954674715978,-0.9984959099398832,0.05333618743433139,-0.000502,-0.000774,-0.000866,0.189,-0.142,-9.466,-3.049e-05,3.3700000000000003e-06,1.7820000000000002e-05
1646352411.7211742,8295,1646352411,715949773,,0.010727381093627968,-0.0067929616100742,-0.9984968132815266,0.053318785001837475,-0.000768,0.000872,-0.000653,0.187,-0.143,-9.467,-3.057000000000001e-05,3.4700000000000002e-06,1.781e-05
1646352411.7453587,8296,1646352411,740815162,,0.010726738184168307,-0.0067845289090083995,-0.998498268066078,0.05329273800860338,-0.001017,0.001451,0.000223,0.208,-0.151,-9.473,-3.049e-05,3.3700000000000003e-06,1.752e-05
1646352411.7697802,8297,1646352411,765774488,,0.01074364093471373,-0.006774976339778409,-0.998498618574256,0.05328398052288728,-0.001417,0.000395,-0.000449,0.202,-0.125,-9.458,-3.066e-05,3.4700000000000002e-06,1.751e-05
1646352411.796035,8298,1646352411,791118621,,0.01076054385110847,-0.006765424066528848,-0.9984989686091523,0.053275223318984384,-0.00019,-0.000544,0.001081,0.196,-0.133,-9.449,-3.074e-05,3.5600000000000002e-06,1.751e-05
1646352411.8210974,8299,1646352411,816153764,,0.010760602890161364,-0.00676533016281149,-0.9984985036571039,0.05328393686424557,-0.000128,0.000109,-0.000956,0.219,-0.129,-9.473,-3.057000000000001e-05,3.2000000000000003e-06,1.752e-05
1646352411.8463337,8300,1646352411,841168403,,0.010750782758862508,-0.006748650847439338,-0.9985001032641823,0.053258052566992606,-0.000308,-0.000799,0.001711,0.203,-0.134,-9.445,-3.057000000000001e-05,3.6499999999999998e-06,1.722e-05
1646352411.8713748,8301,1646352411,865888595,,0.010759614021412943,-0.006747996970919303,-0.9984990865359974,0.0532754111177896,-0.000736,5.4e-05,0.000916,0.196,-0.129,-9.487,-3.057000000000001e-05,3.92e-06,1.751e-05
1646352411.895974,8302,1646352411,890917539,,0.010750494441729442,-0.006739655845014087,-0.9984987674820585,0.05328428703810441,0.000604,0.00024,0.000498,0.208,-0.103,-9.495,-3.065e-05,4.01e-06,1.76e-05
1646352411.9213197,8303,1646352411,916226148,,0.010758512556794877,-0.006721386901384073,-0.9984969373148386,0.053319260484129376,0.00158,0.000516,-0.000257,0.197,-0.125,-9.495,-3.066e-05,3.5600000000000002e-06,1.7910000000000003e-05
1646352411.945979,8304,1646352411,940952777,,0.010749681777231256,-0.006722041136602073,-0.9984979548175602,0.0533019017465166,0.000652,-0.000852,-0.000601,0.184,-0.132,-9.462,-3.057000000000001e-05,3.2000000000000003e-06,1.752e-05
1646352411.9709418,8305,1646352411,965794324,,0.010741374714453338,-0.006731314876244926,-0.9984984482053058,0.0532931627967123,0.001379,-0.000381,-0.001701,0.187,-0.141,-9.455,-3.057000000000001e-05,3.5600000000000002e-06,1.771e-05
1646352411.9965034,8306,1646352411,990998744,,0.01074242264010832,-0.0067485544710992,-0.9984974002796507,0.053310402391566744,-0.000596,0.000988,-6.5e-05,0.172,-0.13,-9.446,-3.04e-05,3.3700000000000003e-06,1.7530000000000003e-05
1646352412.020813,8307,1646352412,16104698,,0.010734174397954235,-0.006757734547269641,-0.998497428238573,0.05331037727064653,0.000653,-0.000296,-0.000255,0.188,-0.16,-9.454,-3.066e-05,3.38e-06,1.722e-05
1646352412.0455625,8308,1646352412,41012287,,0.01073463961834993,-0.006766448080859943,-0.9984973692281942,0.05331028359527376,-0.000702,0.00087,-0.000437,0.17,-0.14,-9.439,-3.057000000000001e-05,3.7400000000000006e-06,1.781e-05
1646352412.070713,8309,1646352412,65824508,,0.010726162358709084,-0.00676654021435062,-0.9984955945466079,0.053345206397560886,-0.001863,0.000352,0.001922,0.197,-0.132,-9.467,-3.049e-05,3.2800000000000004e-06,1.772e-05
1646352412.09607,8310,1646352412,90882778,,0.010733885862019631,-0.006748740003002758,-0.9984960911658668,0.053336611526773194,-0.000473,-0.000273,0.000227,0.224,-0.143,-9.48,-3.0480000000000003e-05,3.92e-06,1.771e-05
1646352412.1202705,8311,1646352412,115701198,,0.010734816759867719,-0.00676616704633312,-0.9984959732260539,0.05333642417699975,0.00079,-0.000462,0.000322,0.197,-0.147,-9.493,-3.04e-05,3.55e-06,1.762e-05
1646352412.14574,8312,1646352412,140949249,,0.010743471167538043,-0.00676579402936347,-0.9984963517522211,0.05332764194983075,-0.000897,0.000586,0.001002,0.197,-0.125,-9.483,-3.0480000000000003e-05,3.5600000000000002e-06,1.772e-05
1646352412.1705909,8313,1646352412,165823221,,0.010752709105452353,-0.0067739470217939475,-0.9984957403075547,0.0533361929303882,-0.000642,0.000436,0.001371,0.207,-0.147,-9.492,-3.0480000000000003e-05,3.830000000000001e-06,1.771e-05
1646352412.1957436,8314,1646352412,190824985,,0.010753233740601258,-0.006782566701244913,-0.9984952156724058,0.05334481260983926,9.6e-05,0.001335,-0.000427,0.183,-0.141,-9.464,-3.056e-05,4.3700000000000005e-06,1.77e-05
1646352412.2216241,8315,1646352412,215919733,,0.010752768218882361,-0.006773853186447316,-0.9984952748234464,0.05334490644747505,-0.000418,0.00016,0.000868,0.181,-0.132,-9.456,-3.056e-05,4.1900000000000005e-06,1.77e-05
1646352412.245338,8316,1646352412,240740776,,0.010734587184438739,-0.006757078821261546,-0.9984941698299659,0.053371371908076906,-0.001244,-0.001096,0.000237,0.175,-0.142,-9.45,-3.056e-05,4.1900000000000005e-06,1.76e-05
1646352412.2703755,8317,1646352412,265758514,,0.010725991689159891,-0.006757358693003715,-0.9984933249794805,0.053388867539963074,0.001149,-9.1e-05,0.000403,0.209,-0.134,-9.442,-3.065e-05,3.92e-06,1.78e-05
1646352412.295204,8318,1646352412,290659904,,0.010734121430946951,-0.006748365315591617,-0.9984942287585825,0.05337146558298978,0.000156,5.8e-05,-0.002165,0.184,-0.131,-9.454,-3.056e-05,4.01e-06,1.7310000000000002e-05
1646352412.3213015,8319,1646352412,315797567,,0.010734121430946951,-0.006748365315591617,-0.9984942287585825,0.05337146558298978,-0.001063,0.00061,-0.001018,0.18,-0.147,-9.451,-3.0480000000000003e-05,4.1000000000000006e-06,1.771e-05
1646352412.345263,8320,1646352412,340924263,,0.010725702458432686,-0.006748364398785412,-0.9984919858486273,0.053415101617229316,0.000701,-0.000497,0.000903,0.185,-0.139,-9.457,-3.065e-05,3.830000000000001e-06,1.741e-05
1646352412.370446,8321,1646352412,365672111,,0.010717455177222019,-0.006757545339146037,-0.9984920136499424,0.05341507664317929,0.000251,0.0007,0.000131,0.201,-0.129,-9.463,-3.066e-05,3.4700000000000002e-06,1.7910000000000003e-05
1646352412.3960776,8322,1646352412,390965223,,0.010717455177222019,-0.006757545339146037,-0.9984920136499424,0.05341507664317929,0.000614,-0.00103,-4.2e-05,0.194,-0.127,-9.48,-3.0480000000000003e-05,3.4700000000000002e-06,1.792e-05
1646352412.419956,8323,1646352412,416094779,,0.0107179803576319,-0.006766165293719585,-0.9984914884695327,0.0534236965977527,-0.000234,0.00133,0.000193,0.184,-0.135,-9.487,-3.057000000000001e-05,3.38e-06,1.772e-05
1646352412.4457202,8324,1646352412,440973043,,0.0107179803576319,-0.006766165293719585,-0.9984914884695327,0.0534236965977527,-0.000153,0.001474,0.000661,0.2,-0.166,-9.457,-3.0480000000000003e-05,3.7400000000000006e-06,1.762e-05
1646352412.4712017,8325,1646352412,465770244,,0.01072797385051066,-0.006792025443608709,-0.9984921565377812,0.05340592008351594,0.001191,0.000133,0.00079,0.186,-0.157,-9.495,-3.049e-05,3.3700000000000003e-06,1.732e-05
1646352412.496672,8326,1646352412,490937232,,0.010719667135969816,-0.006801299860204285,-0.9984926499546256,0.05339718197896625,0.000564,0.001156,0.000556,0.199,-0.169,-9.448,-3.057000000000001e-05,3.4700000000000002e-06,1.752e-05
1646352412.5208995,8327,1646352412,515949964,,0.010738372757485614,-0.006826693138319811,-0.9984932298790417,0.05337933586169652,0.00081,0.000438,-0.001419,0.188,-0.141,-9.444,-3.066e-05,3.4700000000000002e-06,1.751e-05
1646352412.5463085,8328,1646352412,541053771,,0.010738719277671267,-0.006835594062319844,-0.9984941017583342,0.05336181514817449,0.000363,-0.000205,-0.000292,0.212,-0.167,-9.442,-3.0480000000000003e-05,3.4700000000000002e-06,1.7820000000000002e-05
1646352412.5711102,8329,1646352412,565836191,,0.0107564923697022,-0.006843561290328321,-0.9984947994860097,0.053344155632640854,-0.001018,0.000983,-0.000627,0.22,-0.148,-9.445,-3.057000000000001e-05,3.830000000000001e-06,1.781e-05
1646352412.596295,8330,1646352412,590990304,,0.010764740293139754,-0.006834380924315917,-0.9984947721671209,0.05334418017677149,-0.000427,0.000285,0.000739,0.197,-0.131,-9.479,-3.049e-05,3.1e-06,1.792e-05
1646352412.6209602,8331,1646352412,615873336,,0.010763868748654794,-0.006816859969722208,-0.9984944257420411,0.05335308155848545,-0.001016,-0.000948,3.5e-05,0.224,-0.134,-9.478,-3.04e-05,3.6400000000000003e-06,1.772e-05
1646352412.64531,8332,1646352412,640803575,,0.010780711216722454,-0.006807400762993383,-0.9984952419706616,0.053335610266157775,0.000672,-0.000646,0.000446,0.207,-0.152,-9.51,-3.057000000000001e-05,3.5600000000000002e-06,1.7610000000000002e-05
1646352412.6704192,8333,1646352412,665921688,,0.010771878951709227,-0.006808055546348947,-0.9984962598689078,0.05331825232816508,0.000625,-0.000867,-0.001041,0.2,-0.131,-9.481,-3.0390000000000002e-05,3.92e-06,1.7820000000000002e-05
1646352412.6962445,8334,1646352412,690943002,,0.010780127114188902,-0.006798875397712785,-0.9984962320699903,0.05331827730488374,0.000501,-0.000675,0.000889,0.202,-0.151,-9.472,-3.083e-05,3.6499999999999998e-06,1.76e-05
1646352412.7215092,8335,1646352412,716092109,,0.010762116388565853,-0.006791282956856556,-0.9984973960716949,0.05330108220931213,-0.000125,-0.002013,0.000524,0.179,-0.136,-9.469,-3.058e-05,3.1e-06,1.762e-05
1646352412.7459447,8336,1646352412,740920066,,0.010743581811482706,-0.006775070095474415,-0.9984990835266854,0.05327526697662324,0.000202,-0.000481,-0.000734,0.17,-0.125,-9.469,-3.049e-05,3.1e-06,1.713e-05
1646352412.7713537,8337,1646352412,765889644,,0.010725977455957303,-0.006776283383079215,-0.9985006516221897,0.05324926385584188,0.001385,-0.00063,-0.000427,0.167,-0.124,-9.467,-3.056e-05,4.1000000000000006e-06,1.771e-05
1646352412.7957313,8338,1646352412,790732383,,0.010717500510919704,-0.006776375286896902,-0.9984988789946793,0.05328418683942209,0.000802,0.000981,-9e-06,0.179,-0.164,-9.45,-3.057000000000001e-05,3.7400000000000006e-06,1.781e-05
1646352412.8213785,8339,1646352412,816076517,,0.010709192811583315,-0.006785648604172802,-0.9984993714263017,0.053275448600883055,0.000625,-0.00052,-0.000499,0.193,-0.143,-9.459,-3.031e-05,3.3700000000000003e-06,1.743e-05
1646352412.846532,8340,1646352412,841015338,,0.010710063273497761,-0.006803169167941539,-0.9984997177186546,0.05326654813029523,0.000406,-0.000994,0.000756,0.159,-0.165,-9.462,-3.0480000000000003e-05,3.7400000000000006e-06,1.781e-05
1646352412.8711734,8341,1646352412,865761041,,0.010728538934371859,-0.006819476693998209,-0.9984984956586078,0.05328365000120322,-0.000684,0.001037,0.000393,0.203,-0.134,-9.474,-3.049e-05,3.3700000000000003e-06,1.762e-05
1646352412.895707,8342,1646352412,890721321,,0.01072900392152834,-0.00682819023690116,-0.9984984361094269,0.05328355637501016,-0.00025,-0.000162,-0.000761,0.208,-0.156,-9.454,-3.066e-05,3.5600000000000002e-06,1.781e-05
1646352412.920776,8343,1646352412,915843725,,0.010746776535971095,-0.006836158704423145,-0.9984991326688849,0.05326589704246418,-0.001084,0.000167,-0.000163,0.229,-0.162,-9.449,-3.066e-05,3.29e-06,1.722e-05
1646352412.9437916,8344,1646352412,940855503,,0.010763798229227902,-0.006826418884898101,-0.9984985534699329,0.053274565895366575,-0.000426,8.4e-05,-0.000702,0.23,-0.158,-9.473,-3.057000000000001e-05,3.4700000000000002e-06,1.752e-05
1646352412.9711275,8345,1646352412,965922117,,0.010790343912185014,-0.006833827849365542,-0.9984986972504264,0.05326555044663846,8.9e-05,0.000148,0.000679,0.198,-0.133,-9.458,-3.04e-05,3.6400000000000003e-06,1.772e-05
1646352412.99603,8346,1646352412,990886211,,0.010807484681067394,-0.006823899023093034,-0.9984971873111362,0.05329164670697357,-0.000283,-0.00024,0.001026,0.213,-0.137,-9.443,-3.056e-05,4.1000000000000006e-06,1.721e-05
1646352413.0208027,8347,1646352413,15990495,,0.010807425130902987,-0.006823993335928971,-0.9984976523304656,0.05328293317319915,3.3e-05,0.00013,0.000565,0.207,-0.146,-9.472,-3.066e-05,3.38e-06,1.751e-05
1646352413.0452595,8348,1646352413,40744543,,0.01078987908215756,-0.006825114304183493,-0.9984987568488045,0.0532656446081246,-0.000566,-0.001997,-0.001556,0.198,-0.129,-9.485,-3.0480000000000003e-05,3.6499999999999998e-06,1.762e-05
1646352413.0712702,8349,1646352413,65966367,,0.01078099820816667,-0.006816396525711992,-0.9984965785052328,0.05330937562364847,0.000654,-0.000783,-0.000746,0.191,-0.123,-9.48,-3.074e-05,3.38e-06,1.781e-05
1646352413.0960045,8350,1646352413,90868473,,0.010754273783024765,-0.0068092703443281884,-0.9984978295074447,0.0532922499215362,-0.000214,-0.001271,-0.000968,0.195,-0.148,-9.492,-3.04e-05,3.55e-06,1.772e-05
1646352413.1213188,8351,1646352413,116152763,,0.010745619742292644,-0.006809642967177756,-0.9984974513482157,0.053301032542825276,0.000432,2e-05,-0.000219,0.191,-0.134,-9.491,-3.065e-05,4.1000000000000006e-06,1.79e-05
1646352413.1460493,8352,1646352413,140899658,,0.010736213100508488,-0.006792307607462453,-0.9984957957460355,0.05333614312187608,-0.000408,-0.000392,0.000128,0.166,-0.111,-9.466,-3.057000000000001e-05,3.4700000000000002e-06,1.702e-05
1646352413.1701033,8353,1646352413,165776491,,0.010727093406567141,-0.00678396724901063,-0.9984954762961225,0.05334501918258669,-0.001126,0.000798,0.002002,0.182,-0.131,-9.486,-3.049e-05,3.3700000000000003e-06,1.752e-05
1646352413.195663,8354,1646352413,190839052,,0.010727152607441105,-0.006783873637202759,-0.9984950107349905,0.053353732697369254,0.000384,0.000138,-0.000159,0.182,-0.113,-9.475,-3.0390000000000002e-05,3.830000000000001e-06,1.752e-05
1646352413.2206972,8355,1646352413,215772151,,0.010718032693134174,-0.006775533515475973,-0.9984946909848139,0.05336260859357145,0.000587,0.000468,-0.000195,0.209,-0.114,-9.438,-3.0480000000000003e-05,4.01e-06,1.751e-05
1646352413.2460992,8356,1646352413,240909576,,0.010744697872462235,-0.0067827522578086585,-0.9984939057151078,0.05337102199909471,6e-06,0.000239,-0.000592,0.214,-0.158,-9.442,-3.0480000000000003e-05,3.5600000000000002e-06,1.752e-05
1646352413.2710536,8357,1646352413,265839099,,0.010753352117084116,-0.00678237902087787,-0.9984942844777075,0.05336223963079235,0.001436,-7.7e-05,8.2e-05,0.219,-0.156,-9.477,-3.049e-05,3.19e-06,1.743e-05
1646352413.2952616,8358,1646352413,290741205,,0.010771066888199142,-0.006790440508462448,-0.9984954478053978,0.05333586736605132,-0.00059,-0.000209,-0.000882,0.22,-0.166,-9.481,-3.0480000000000003e-05,4.01e-06,1.751e-05
1646352413.3212135,8359,1646352413,315752983,,0.010789196514846704,-0.0067978438607798715,-0.9984933517179873,0.05337048933997012,0.000318,0.002351,0.000109,0.227,-0.157,-9.471,-3.0480000000000003e-05,3.5600000000000002e-06,1.742e-05
1646352413.346702,8360,1646352413,341095685,,0.010798960368208581,-0.00681461529639479,-0.9984922139701005,0.053387658821259204,-0.000493,0.00074,-0.002314,0.218,-0.164,-9.441,-3.0480000000000003e-05,3.4700000000000002e-06,1.742e-05
1646352413.37092,8361,1646352413,365757703,,0.010807901509172945,-0.0068232388186911345,-0.9984939300467145,0.053352641329721916,-0.000478,-0.000178,-0.001316,0.212,-0.15,-9.471,-3.057000000000001e-05,3.29e-06,1.6930000000000002e-05
1646352413.3960528,8362,1646352413,390969514,,0.010799188077324755,-0.0068237057514139955,-0.99849401743259,0.05335271059669941,-6.1e-05,-0.001323,-0.000577,0.206,-0.153,-9.48,-3.057000000000001e-05,3.6499999999999998e-06,1.751e-05
1646352413.4200735,8363,1646352413,415720224,,0.010790880606488515,-0.006832980356660067,-0.9984945107042603,0.05334397218657092,0.000461,0.00015,-0.001092,0.181,-0.155,-9.489,-3.0480000000000003e-05,3.92e-06,1.781e-05
1646352413.4459646,8364,1646352413,440877914,,0.010764740293139754,-0.006834380924315917,-0.9984947721671209,0.05334418017677149,-0.000717,-0.000434,-0.000852,0.163,-0.14,-9.449,-3.057000000000001e-05,3.4700000000000002e-06,1.742e-05
1646352413.4712598,8365,1646352413,465894699,,0.010746560866033891,-0.006817606266100944,-0.998493668344072,0.05337064690586929,-0.000825,-0.001064,0.000391,0.172,-0.128,-9.496,-3.074e-05,3.92e-06,1.77e-05
1646352413.4955034,8366,1646352413,490924119,,0.01072872768329801,-0.006809733298027826,-0.9984934356591335,0.05337959235819414,-0.000116,0.001185,0.000736,0.162,-0.129,-9.481,-3.074e-05,3.6499999999999998e-06,1.78e-05
1646352413.5202816,8367,1646352413,515769481,,0.010727389402767717,-0.006783499184805136,-0.9984931477300654,0.05338858671586125,-0.001288,0.000677,0.000128,0.203,-0.125,-9.448,-3.057000000000001e-05,3.5600000000000002e-06,1.752e-05
1646352413.5450628,8368,1646352413,540747165,,0.010718150946870142,-0.006775346449484179,-0.9984937594795171,0.0533800356053643,-0.000353,0.000115,0.00111,0.182,-0.11,-9.44,-3.04e-05,3.6400000000000003e-06,1.772e-05
1646352413.5704937,8369,1646352413,565827369,,0.010726280455481099,-0.006766353006470765,-0.9984946633450366,0.0533626334251265,0.000439,-0.000189,0.000252,0.217,-0.129,-9.434,-3.057000000000001e-05,3.4700000000000002e-06,1.771e-05
1646352413.5954225,8370,1646352413,590921401,,0.01072569683355477,-0.006757826696247331,-0.9984956535577908,0.05334529999895427,-1.1e-05,-0.000975,-0.00014,0.215,-0.102,-9.467,-3.04e-05,3.55e-06,1.7330000000000002e-05
1646352413.6217017,8371,1646352413,616531610,,0.010734121430946951,-0.006748365315591617,-0.9984942287585825,0.05337146558298978,-0.000508,-0.000724,0.000378,0.211,-0.137,-9.468,-3.049e-05,3.2800000000000004e-06,1.792e-05
1646352413.6458707,8372,1646352413,641090631,,0.01074318269193415,-0.006756799251102716,-0.9984950142978571,0.053353876258900396,0.001243,0.000241,1.9e-05,0.206,-0.143,-9.459,-3.049e-05,3.1e-06,1.743e-05
1646352413.670577,8373,1646352413,665784597,,0.010743766370766735,-0.006765325250560644,-0.9984940239443878,0.05337120952132084,0.000382,-0.000272,-0.000325,0.222,-0.14,-9.463,-3.057000000000001e-05,3.92e-06,1.771e-05
1646352413.6966395,8374,1646352413,691347122,,0.010744816252184966,-0.006782564726420587,-0.9984929740629696,0.053388448997180954,0.001596,-0.002156,-0.001454,0.183,-0.148,-9.45,-3.066e-05,3.29e-06,1.722e-05
1646352413.7216399,8375,1646352413,716056346,,0.010728261858069485,-0.006801019798762739,-0.9984934950472474,0.053379685981972895,0.000621,-0.000986,-0.00173,0.177,-0.15,-9.461,-3.066e-05,3.38e-06,1.751e-05
1646352413.7460165,8376,1646352413,741099596,,0.010702002842918019,-0.0068026080451067065,-0.998494686457744,0.05336246597175199,-0.000819,0.000355,-0.000229,0.21,-0.156,-9.485,-3.0480000000000003e-05,4.1000000000000006e-06,1.771e-05
1646352413.770446,8377,1646352413,765920162,,0.010711874943608314,-0.006828655488626074,-0.9984962835558097,0.05332726248970852,0.000367,2.6e-05,-0.000196,0.178,-0.16,-9.473,-3.031e-05,3.55e-06,1.7630000000000002e-05
1646352413.7955658,8378,1646352413,790904283,,0.010704737059831347,-0.006854982511999661,-0.9984947945377584,0.053353192034213064,0.00023,-0.000348,0.001939,0.191,-0.162,-9.489,-3.0480000000000003e-05,3.5600000000000002e-06,1.752e-05
1646352413.8209617,8379,1646352413,816046237,,0.010688061421592185,-0.006873623207823878,-0.9984962440135503,0.05332700383368636,-0.000394,-0.002051,0.000998,0.181,-0.154,-9.434,-3.066e-05,3.4700000000000002e-06,1.781e-05
1646352413.8462243,8380,1646352413,840922594,,0.010689052287112292,-0.006890956974487139,-0.9984956584918236,0.05333553080413636,-0.000492,0.000276,-0.000567,0.178,-0.128,-9.416,-3.04e-05,3.6400000000000003e-06,1.762e-05
1646352413.8702815,8381,1646352413,865820169,,0.010696834852470975,-0.0068730631589752735,-0.9984956922314313,0.05333564776232364,-0.000285,-0.000402,0.000369,0.193,-0.153,-9.444,-3.0390000000000002e-05,3.830000000000001e-06,1.732e-05
1646352413.8966343,8382,1646352413,891300201,,0.010696489214605677,-0.006864162952105748,-0.9984948211358313,0.05335316813810501,-0.000678,0.000818,0.000111,0.189,-0.162,-9.454,-3.057000000000001e-05,3.7400000000000006e-06,1.771e-05
1646352413.920471,8383,1646352413,915901660,,0.010696549115320338,-0.006864069607366783,-0.9984943555035865,0.053361881647169686,-0.000121,-0.000785,0.000562,0.187,-0.142,-9.439,-3.0390000000000002e-05,4.1000000000000006e-06,1.762e-05
1646352413.9458697,8384,1646352413,940879344,,0.010696322735202358,-0.006854982732149672,-0.9984925520732388,0.05339682898784283,0.000336,-9.4e-05,0.000216,0.213,-0.156,-9.462,-3.0480000000000003e-05,3.6499999999999998e-06,1.752e-05
1646352413.9714565,8385,1646352413,965873241,,0.010704976337339602,-0.0068546088420089355,-0.9984929315517062,0.053388046045158684,-0.000549,0.00061,0.000899,0.19,-0.14,-9.464,-3.04e-05,3.55e-06,1.752e-05
1646352413.998603,8386,1646352413,990926742,,0.010713749573339601,-0.00685404811374076,-0.9984923790809097,0.05339669008355539,-5.5e-05,-0.000386,-0.000169,0.208,-0.14,-9.442,-3.04e-05,3.2800000000000004e-06,1.7630000000000002e-05
1646352414.0202222,8387,1646352414,15674114,,0.010712757962474072,-0.006836714619836207,-0.9984929644921751,0.05338816357276681,-0.000538,5.9e-05,-0.00018,0.184,-0.112,-9.484,-3.057000000000001e-05,3.38e-06,1.762e-05
1646352414.04557,8388,1646352414,40924310,,0.01071235164759078,-0.006827907642038351,-0.9984925581772918,0.05339697055056454,-0.000468,-0.000216,0.001361,0.18,-0.114,-9.462,-3.031e-05,3.46e-06,1.7630000000000002e-05
1646352414.0714102,8389,1646352414,65841436,,0.01071194517899679,-0.006819100671333365,-0.9984921517086977,0.053405777521269605,0.000423,-0.000144,0.000808,0.19,-0.132,-9.471,-3.0480000000000003e-05,3.830000000000001e-06,1.781e-05
1646352414.0960057,8390,1646352414,90894222,,0.01071188567070954,-0.006819194150430047,-0.9984926177240067,0.053397064031434766,-0.000501,-0.000346,-0.000977,0.18,-0.127,-9.447,-3.057000000000001e-05,3.29e-06,1.742e-05
1646352414.120935,8391,1646352414,115960597,,0.01070329127354554,-0.006819474650239755,-0.9984917721666389,0.05341456015856913,0.00029,0.000573,-0.000231,0.182,-0.14,-9.401,-3.0480000000000003e-05,3.46e-06,1.713e-05
1646352414.1457522,8392,1646352414,141071557,,0.010703697815519603,-0.00682828154211368,-0.9984921787086128,0.05340575326669512,0.00032,0.000422,-0.000527,0.193,-0.135,-9.437,-3.0470000000000005e-05,4.3700000000000005e-06,1.741e-05
1646352414.1705067,8393,1646352414,165909290,,0.010704988345909232,-0.006845148014651031,-0.9984892617029086,0.05345784729253458,0.001626,-0.000562,-0.000545,0.196,-0.15,-9.453,-3.049e-05,3.2800000000000004e-06,1.7820000000000002e-05
1646352414.1957223,8394,1646352414,190791130,,0.010705215601804168,-0.0068542351636660765,-0.9984910673490204,0.05342289999105259,0.001363,0.00044,0.000462,0.199,-0.153,-9.465,-3.0390000000000002e-05,3.830000000000001e-06,1.762e-05
1646352414.2205055,8395,1646352414,215713024,,0.01070614800567443,-0.006871662119298225,-0.9984909475679703,0.05342271314165644,0.00054,0.000557,0.001009,0.151,-0.165,-9.45,-3.031e-05,3.3700000000000003e-06,1.773e-05
1646352414.2456522,8396,1646352414,241065979,,0.010715914037772046,-0.006888434505301676,-0.9984898084168771,0.05343988345823214,0.000593,-0.00042,0.000256,0.207,-0.148,-9.463,-3.0480000000000003e-05,3.4700000000000002e-06,1.752e-05
1646352414.2705839,8397,1646352414,265994310,,0.010717252745519625,-0.006914668430931663,-0.9984900940463977,0.053430889430134826,0.00094,0.00032,0.000731,0.187,-0.167,-9.466,-3.057000000000001e-05,3.4700000000000002e-06,1.692e-05
1646352414.2957695,8398,1646352414,290894746,,0.010726432414240006,-0.006922914280325066,-0.998489947091359,0.0534307258328502,-0.001653,0.000897,-0.000465,0.205,-0.152,-9.525,-3.049e-05,3.2800000000000004e-06,1.812e-05
1646352414.3212636,8399,1646352414,316231012,,0.010726372000007565,-0.006923007885842768,-0.998490413324383,0.053422012362253544,-0.000231,0.00124,-0.000321,0.192,-0.149,-9.481,-3.0390000000000002e-05,4.1900000000000005e-06,1.7610000000000002e-05
1646352414.3464935,8400,1646352414,341081380,,0.010743798799031281,-0.0069220727959626,-0.9984902399447351,0.05342187221240653,-0.00045,0.000399,-0.000728,0.196,-0.139,-9.466,-3.066e-05,3.29e-06,1.7610000000000002e-05
1646352414.370709,8401,1646352414,365905523,,0.010734032490908532,-0.006905300741623755,-0.9984913795815983,0.053404702689821726,-0.000845,-0.00122,-0.001169,0.202,-0.134,-9.44,-3.066e-05,3.38e-06,1.741e-05
1646352414.3961272,8402,1646352414,391175508,,0.01074240021400557,-0.0068959323802393335,-0.9984904208219999,0.053422153466093934,-0.001641,-0.000144,-0.001377,0.191,-0.137,-9.49,-3.04e-05,3.2800000000000004e-06,1.773e-05
1646352414.420534,8403,1646352414,415779590,,0.01073275441774548,-0.0068789729752159546,-0.9984906277748901,0.053422410644974404,-0.001492,-0.000379,0.000229,0.211,-0.141,-9.467,-3.0480000000000003e-05,3.5600000000000002e-06,1.732e-05
1646352414.4458234,8404,1646352414,441061019,,0.010740415672472648,-0.0068612659419207715,-0.9984915931740713,0.05340510145633445,-9.5e-05,-0.000901,0.000861,0.199,-0.128,-9.457,-3.0480000000000003e-05,3.5600000000000002e-06,1.752e-05
1646352414.4705772,8405,1646352414,465743064,,0.010730949343084382,-0.006844025428083821,-0.9984904010482611,0.05343149873079053,0.000356,-0.000729,0.000672,0.181,-0.141,-9.47,-3.0480000000000003e-05,3.92e-06,1.771e-05
1646352414.4955418,8406,1646352414,490828752,,0.010721829315987079,-0.006835686003099698,-0.9984900811104,0.053440375158979765,-0.000355,-7.2e-05,-0.000898,0.196,-0.086,-9.461,-3.0390000000000002e-05,3.830000000000001e-06,1.762e-05
1646352414.5203023,8407,1646352414,515780210,,0.010720837102910904,-0.006818352619808199,-0.998490666582412,0.05343184880925713,-3.9e-05,-0.001309,-0.001956,0.189,-0.129,-9.464,-3.065e-05,3.7400000000000006e-06,1.8e-05
1646352414.545102,8408,1646352414,540710210,,0.010729550506041413,-0.0068178850081696205,-0.9984905798822505,0.05343177964807667,-6.3e-05,0.001108,0.000124,0.205,-0.126,-9.458,-3.0480000000000003e-05,3.4700000000000002e-06,1.742e-05
1646352414.5703886,8409,1646352414,565757274,,0.01072961000290357,-0.006817791374918219,-0.9984901135639908,0.05344049312012666,-0.000268,9.7e-05,-0.000386,0.206,-0.148,-9.49,-3.057000000000001e-05,3.29e-06,1.732e-05
1646352414.5955522,8410,1646352414,590787649,,0.010729957212154207,-0.006826692118795364,-0.9984909865883632,0.05342297253745105,-3e-06,-0.000318,0.000855,0.192,-0.143,-9.502,-3.04e-05,3.6400000000000003e-06,1.7230000000000003e-05
1646352414.6205153,8411,1646352414,615887165,,0.010730304113161433,-0.0068355928763466625,-0.99849185922927,0.05340545193651302,0.000607,-0.000342,0.000507,0.19,-0.145,-9.462,-3.057000000000001e-05,3.7400000000000006e-06,1.781e-05
1646352414.645345,8412,1646352414,640975475,,0.010730363764553863,-0.006835499236518126,-0.998491393140763,0.053414165419728425,-0.000844,7.5e-05,-0.000405,0.198,-0.147,-9.44,-3.0480000000000003e-05,3.7400000000000006e-06,1.752e-05
1646352414.6701343,8413,1646352414,665917158,,0.010721590699000243,-0.006836060261381885,-0.9984919459230848,0.05340552124750144,0.000938,-0.000816,-0.000117,0.182,-0.158,-9.474,-3.057000000000001e-05,3.6499999999999998e-06,1.7610000000000002e-05
1646352414.6962917,8414,1646352414,691231966,,0.010730304113161433,-0.0068355928763466625,-0.99849185922927,0.05340545193651302,-0.001479,0.001633,0.000705,0.172,-0.139,-9.46,-3.057000000000001e-05,3.6499999999999998e-06,1.7610000000000002e-05
1646352414.7215433,8415,1646352414,715942382,,0.010721650354471708,-0.006835966697592214,-0.9984914798339729,0.05341423473147339,-0.000862,-0.000206,0.00199,0.204,-0.145,-9.478,-3.0390000000000002e-05,3.830000000000001e-06,1.752e-05
1646352414.7461872,8416,1646352414,741062164,,0.010722116481195202,-0.006844680179269916,-0.9984914201408899,0.053414141165389555,0.000113,-0.000867,-0.000306,0.195,-0.144,-9.471,-3.04e-05,3.2800000000000004e-06,1.743e-05
1646352414.770507,8417,1646352414,765773773,,0.010722462991184711,-0.006853580803753337,-0.9984922924706858,0.053396620625312086,-0.000256,0.000174,-0.00085,0.202,-0.159,-9.482,-3.0480000000000003e-05,3.46e-06,1.713e-05
1646352414.7956007,8418,1646352414,790852069,,0.010731762140457134,-0.006861639677717349,-0.9984912138456339,0.05341388448115727,0.000517,0.000309,0.000483,0.199,-0.154,-9.452,-3.03e-05,4.1000000000000006e-06,1.772e-05
1646352414.8213544,8419,1646352414,815913915,,0.010731642380618137,-0.006861826981256146,-0.9984921459417055,0.053396457513788735,-0.000603,0.000205,4.6e-05,0.206,-0.141,-9.48,-3.065e-05,3.7400000000000006e-06,1.81e-05
1646352414.8457859,8420,1646352414,841058492,,0.010730949343084382,-0.006844025428083821,-0.9984904010482611,0.05343149873079053,0.000247,-0.000181,0.000239,0.215,-0.148,-9.438,-3.049e-05,3.19e-06,1.772e-05
1646352414.868023,8421,1646352414,865789175,,0.010730829890672164,-0.0068442127174393064,-0.9984913334517594,0.05341407177760576,2.5e-05,0.000503,0.001142,0.185,-0.145,-9.462,-3.0480000000000003e-05,3.5600000000000002e-06,1.772e-05
1646352414.8952382,8422,1646352414,890742301,,0.010730304113161433,-0.0068355928763466625,-0.99849185922927,0.05340545193651302,-0.000378,-0.000656,-0.000133,0.208,-0.132,-9.473,-3.0480000000000003e-05,3.5600000000000002e-06,1.802e-05
1646352414.9211538,8423,1646352414,915754795,,0.01072977848609539,-0.006826973026078787,-0.9984923848563362,0.05339683208624505,-0.000807,0.002358,-0.000786,0.195,-0.146,-9.461,-3.0390000000000002e-05,4.28e-06,1.771e-05
1646352414.946518,8424,1646352414,940771579,,0.010729897637618394,-0.006826785755076395,-0.9984914527537271,0.053414259057783374,-0.000243,-0.000873,0.000433,0.207,-0.126,-9.47,-3.04e-05,3.3700000000000003e-06,1.7230000000000003e-05
1646352414.970673,8425,1646352414,965925455,,0.010730076358774427,-0.006826504844673658,-0.9984900540295174,0.05344039948458079,0.0001,1.7e-05,0.000211,0.208,-0.131,-9.489,-3.056e-05,3.92e-06,1.7910000000000003e-05
1646352414.9953756,8426,1646352414,990844249,,0.010738382893099328,-0.006817229976912336,-0.9984895603946979,0.05344913742134287,-0.001225,0.000238,6e-05,0.192,-0.137,-9.487,-3.057000000000001e-05,3.38e-06,1.752e-05
1646352415.020216,8427,1646352415,15772104,,0.010738789756402899,-0.006826037155719864,-0.9984899672580015,0.05344033024253526,-0.000606,0.000905,9.6e-05,0.194,-0.127,-9.471,-3.04e-05,3.46e-06,1.7230000000000003e-05
1646352415.0464234,8428,1646352415,40842294,,0.01073873018758238,-0.006826130869079412,-0.9984904335748399,0.05343161677176204,-0.000431,-0.000507,-0.000547,0.202,-0.143,-9.475,-3.0480000000000003e-05,3.7400000000000006e-06,1.752e-05
1646352415.0711887,8429,1646352415,65774917,,0.01073919646599214,-0.006834844341627156,-0.9984903739675909,0.053431523056627885,-0.00044,0.000714,0.001303,0.194,-0.153,-9.449,-3.057000000000001e-05,3.38e-06,1.781e-05
1646352415.095269,8430,1646352415,90812444,,0.010747790582266015,-0.00683456431280833,-0.9984912195262251,0.053414026784035354,-0.000567,-0.0009,-0.001103,0.177,-0.151,-9.497,-3.04e-05,3.6400000000000003e-06,1.772e-05
1646352415.1205,8431,1646352415,115758180,,0.010748196987900015,-0.006843371588188093,-0.998491625931859,0.0534052195086555,0.000631,-0.000259,-0.000311,0.2,-0.124,-9.477,-3.056e-05,4.01e-06,1.79e-05
1646352415.1460614,8432,1646352415,140961885,,0.010748316425629116,-0.006843183995719707,-0.998490693682862,0.0534226464669466,0.000434,0.000175,0.000328,0.177,-0.141,-9.493,-3.057000000000001e-05,3.4700000000000002e-06,1.762e-05
1646352415.1708255,8433,1646352415,165893554,,0.010748603239818,-0.006852178870659632,-0.998492032183777,0.05339641222618388,0.000901,0.000117,0.000956,0.189,-0.119,-9.468,-3.066e-05,3.29e-06,1.712e-05
1646352415.1961024,8434,1646352415,190666437,,0.010739650615404796,-0.006853021070915265,-0.998493982302632,0.053361627714038185,-0.000882,0.000115,-0.000263,0.201,-0.163,-9.479,-3.066e-05,3.2000000000000003e-06,1.752e-05
1646352415.2204502,8435,1646352415,215788841,,0.01074005640270546,-0.006861828299364791,-0.9984943880899327,0.0533528204855888,0.000429,-6e-06,0.000793,0.203,-0.152,-9.47,-3.0140000000000003e-05,3.7300000000000003e-06,1.7440000000000002e-05
1646352415.2438655,8436,1646352415,240872144,,0.010731748596836866,-0.006871102391206783,-0.9984948804813101,0.053344082863969536,0.001125,0.000773,7.9e-05,0.172,-0.157,-9.474,-3.04e-05,3.3700000000000003e-06,1.7530000000000003e-05
1646352415.2702148,8437,1646352415,265753507,,0.010731688634748247,-0.0068711960431189064,-0.9984953459582314,0.053335369350324,-0.000258,0.000498,-0.000332,0.206,-0.141,-9.452,-3.049e-05,3.3700000000000003e-06,1.703e-05
1646352415.2960997,8438,1646352415,290893077,,0.010766302612575909,-0.006869704737933093,-0.9984968596059622,0.05330023679027448,-0.00082,0.000958,-0.00157,0.202,-0.154,-9.461,-3.04e-05,3.3700000000000003e-06,1.7820000000000002e-05
1646352415.3213603,8439,1646352415,315905570,,0.010783669583084335,-0.006868865886524631,-0.9984971504930217,0.05329138400409681,-0.001771,0.001144,0.000436,0.205,-0.143,-9.442,-3.04e-05,3.2800000000000004e-06,1.7630000000000002e-05
1646352415.3454156,8440,1646352415,340782165,,0.010799987041343538,-0.006850788764070953,-0.9984984905218742,0.05326529262808382,0.000174,0.000194,0.001563,0.232,-0.139,-9.457,-3.04e-05,3.55e-06,1.762e-05
1646352415.3705416,8441,1646352415,365955114,,0.010808235684918063,-0.006841609046836391,-0.9984984628844807,0.053265317462291996,0.000221,-0.000248,0.000283,0.217,-0.129,-9.469,-3.0390000000000002e-05,3.7400000000000006e-06,1.772e-05
1646352415.3956056,8442,1646352415,390773773,,0.01079958192152453,-0.006841980976821647,-0.9984980854020553,0.053274100415332995,-5.6e-05,-0.000288,0.000471,0.219,-0.142,-9.458,-3.0480000000000003e-05,3.7400000000000006e-06,1.742e-05
1646352415.4213831,8443,1646352415,416208028,,0.010791333357842063,-0.006851160766279689,-0.9984981129595567,0.0532740756533483,0.000235,-0.001639,0.000121,0.186,-0.114,-9.456,-3.049e-05,3.2800000000000004e-06,1.752e-05
1646352415.4465685,8444,1646352415,441033124,,0.010773262351786437,-0.006843661769075148,-0.9984997414713076,0.053248167983716135,-0.001033,-0.000521,0.00114,0.193,-0.106,-9.463,-3.0480000000000003e-05,3.6499999999999998e-06,1.732e-05
1646352415.471239,8445,1646352415,466262102,,0.010755490012853364,-0.0068356925344526896,-0.9984990457372733,0.05326582773141188,-0.000262,-0.00155,-0.001672,0.188,-0.107,-9.512,-3.066e-05,3.4700000000000002e-06,1.721e-05
1646352415.4956515,8446,1646352415,490824699,,0.01072017126555271,-0.0068288436599569366,-0.9984994526384023,0.05326619850445319,0.000635,-0.001194,0.000719,0.19,-0.109,-9.497,-3.04e-05,3.55e-06,1.7230000000000003e-05
1646352415.5209367,8447,1646352415,515765905,,0.01070216041470869,-0.006821249229390546,-0.9985006149109302,0.05324900321980384,0.001205,0.000674,0.000891,0.189,-0.123,-9.48,-3.04e-05,3.2800000000000004e-06,1.792e-05
1646352415.546722,8448,1646352415,540834665,,0.010692803869726583,-0.006813281619262945,-0.9985021546060362,0.053223024961793104,0.00092,-0.000291,-0.001484,0.202,-0.131,-9.487,-3.057000000000001e-05,3.38e-06,1.762e-05
1646352415.571152,8449,1646352415,566053152,,0.010684673896473871,-0.00682227449701614,-0.9985012524527191,0.053240427916806395,0.000482,0.00132,-0.000614,0.188,-0.131,-9.41,-3.057000000000001e-05,3.38e-06,1.762e-05
1646352415.5958488,8450,1646352415,591195821,,0.010685019281587866,-0.006831174553784092,-0.9985021219461773,0.05322290753190055,0.001227,0.001478,-0.000548,0.175,-0.136,-9.431,-3.0480000000000003e-05,3.4700000000000002e-06,1.772e-05
1646352415.6205773,8451,1646352415,615891695,,0.010677115151391565,-0.006849253840576143,-0.9985030176507067,0.053205363228756596,0.000534,0.001352,-0.00119,0.181,-0.184,-9.441,-3.057000000000001e-05,3.29e-06,1.722e-05
1646352415.6458533,8452,1646352415,641035079,,0.010678448061341451,-0.006875487773400246,-0.9985033022594033,0.05319637010121978,0.000761,0.001015,-0.001712,0.207,-0.19,-9.472,-3.057000000000001e-05,3.38e-06,1.762e-05
1646352415.6707637,8453,1646352415,665874958,,0.010678508060884509,-0.00687539458609961,-0.9985028379954789,0.05320508368430243,-0.00134,3e-06,0.000773,0.189,-0.205,-9.436,-3.057000000000001e-05,3.7400000000000006e-06,1.771e-05
1646352415.6953864,8454,1646352415,690897464,,0.010678043758533363,-0.006866681004781161,-0.9985028979565952,0.05320517686983896,-0.00139,0.000106,-0.0009,0.206,-0.201,-9.499,-3.04e-05,3.1e-06,1.7530000000000003e-05
1646352415.720546,8455,1646352415,715709686,,0.010677340060640878,-0.006858340136596878,-0.9985048144476316,0.05317041569050542,-0.001228,0.001189,-0.000522,0.208,-0.165,-9.486,-3.0480000000000003e-05,3.4700000000000002e-06,1.7820000000000002e-05
1646352415.7460248,8456,1646352415,740732908,,0.010694647427643172,-0.0068575961321794355,-0.9985055695722665,0.05315284963997712,0.000497,0.000728,-0.001002,0.215,-0.176,-9.519,-3.0480000000000003e-05,3.5600000000000002e-06,1.772e-05
1646352415.7704403,8457,1646352415,765933990,,0.010693898805320198,-0.006839888958075296,-0.9985042972223984,0.05317917708828525,-0.00108,-0.000619,0.000189,0.226,-0.154,-9.5,-3.049e-05,3.19e-06,1.762e-05
1646352415.7975929,8458,1646352415,790861606,,0.010701446036479921,-0.006822369919604693,-0.9985061856586053,0.05314444018814436,-0.001429,0.000114,-0.000755,0.226,-0.095,-9.464,-3.0480000000000003e-05,3.5600000000000002e-06,1.762e-05
1646352415.8197632,8459,1646352415,816140651,,0.010708126792278092,-0.006787330716524438,-0.9985077275956721,0.053118604029774176,-0.001936,-0.001155,-0.001428,0.202,-0.093,-9.448,-3.0480000000000003e-05,3.4700000000000002e-06,1.752e-05
1646352415.844964,8460,1646352415,840815782,,0.010698604304857976,-0.00677018161184584,-0.9985070052479272,0.05313628682629944,-0.001082,-0.001611,-0.000621,0.216,-0.091,-9.409,-3.057000000000001e-05,3.7400000000000006e-06,1.7610000000000002e-05
1646352415.868412,8461,1646352415,865448474,,0.010698604304857976,-0.00677018161184584,-0.9985070052479272,0.05313628682629944,0.000533,-0.001433,-0.000176,0.199,-0.095,-9.444,-3.049e-05,3.2800000000000004e-06,1.752e-05
1646352415.8948128,8462,1646352415,890738487,,0.010681118119452333,-0.006771204862350199,-0.9985076418704529,0.05312771053544408,0.000599,-0.001431,-0.001278,0.193,-0.112,-9.423,-3.0480000000000003e-05,3.5600000000000002e-06,1.762e-05
1646352415.919622,8463,1646352415,915791034,,0.0106728090227379,-0.006780476567051513,-0.9985081326923906,0.05311897243210909,0.001364,-0.001498,0.000138,0.185,-0.107,-9.455,-3.0220000000000005e-05,3.55e-06,1.734e-05
1646352415.9455326,8464,1646352415,940697193,,0.010664677516125393,-0.0067894689294428654,-0.9985072325127965,0.05313637534466982,0.002414,0.000619,0.000858,0.171,-0.144,-9.484,-3.057000000000001e-05,3.6499999999999998e-06,1.732e-05
1646352415.9709265,8465,1646352415,965874671,,0.010656891370808351,-0.006807361188377977,-0.9985072000586376,0.053136258157887584,0.000805,0.000219,-0.000489,0.185,-0.166,-9.51,-3.0480000000000003e-05,3.6499999999999998e-06,1.7910000000000003e-05
1646352415.9962156,8466,1646352415,991295814,,0.010666068619524014,-0.006815609785331652,-0.9985070544227325,0.053136096125855826,-0.000499,-0.000841,-0.000493,0.178,-0.154,-9.471,-3.04e-05,3.55e-06,1.772e-05
1646352416.0204678,8467,1646352416,15712261,,0.010666532319032402,-0.0068243234029240546,-0.9985069949072966,0.05313600304482472,0.000168,0.000507,0.000403,0.164,-0.179,-9.479,-3.058e-05,3.1e-06,1.732e-05
1646352416.0466063,8468,1646352416,41089057,,0.010658103566824038,-0.006833781074251741,-0.9985084122546531,0.053109838272014,-0.000628,0.000189,0.000552,0.219,-0.176,-9.501,-3.0480000000000003e-05,3.830000000000001e-06,1.771e-05
1646352416.0711703,8469,1646352416,66428422,,0.010675815037271082,-0.006841844605608351,-0.9985095702044904,0.05308346584132048,0.000527,0.000188,0.000284,0.174,-0.181,-9.434,-3.04e-05,3.55e-06,1.7820000000000002e-05
1646352416.0957963,8470,1646352416,90887308,,0.010676278277493222,-0.006850558245154094,-0.9985095104601123,0.05308337267523784,-0.000391,0.000724,0.000234,0.208,-0.169,-9.454,-3.057000000000001e-05,3.29e-06,1.742e-05
1646352416.1203818,8471,1646352416,115794181,,0.01068505162351998,-0.00685000043102815,-0.99850896085095,0.053092016972927744,-0.0009,0.000709,-0.001203,0.201,-0.146,-9.438,-3.0390000000000002e-05,3.7400000000000006e-06,1.742e-05
1646352416.1440604,8472,1646352416,140916585,,0.010685111400643765,-0.006849907186101534,-0.9985084974976782,0.05310073060539488,-0.001279,-0.001599,-6e-05,0.24,-0.15,-9.423,-3.049e-05,3.19e-06,1.7820000000000002e-05
1646352416.1716204,8473,1646352416,165872335,,0.010684707709214085,-0.0068411003139915005,-0.9985080938062486,0.053109537477505006,-0.000643,0.000366,-0.000478,0.234,-0.144,-9.466,-3.049e-05,3.3700000000000003e-06,1.732e-05
1646352416.1954327,8474,1646352416,190757989,,0.010692375239137878,-0.006823394881196849,-0.9985090534218268,0.053092227573234514,-0.001991,-0.000245,-0.00099,0.214,-0.126,-9.461,-3.049e-05,3.19e-06,1.792e-05
1646352416.220583,8475,1646352416,215745449,,0.010700566020798379,-0.0068143099821691136,-0.9985094897088133,0.05308353819920769,-0.000296,-0.00135,-0.000892,0.207,-0.139,-9.489,-3.04e-05,3.3700000000000003e-06,1.743e-05
1646352416.2446427,8476,1646352416,240799188,,0.010690225748140155,-0.0067890067914157335,-0.9985116066461329,0.053049032537818966,-0.001238,0.00106,0.000792,0.206,-0.137,-9.448,-3.0480000000000003e-05,3.4700000000000002e-06,1.742e-05
1646352416.269496,8477,1646352416,264951229,,0.010689585296269264,-0.006780572988591936,-0.9985130543340547,0.05302298483315756,-0.000726,0.000208,-0.00045,0.177,-0.133,-9.479,-3.092e-05,3.38e-06,1.76e-05
1646352416.2967896,8478,1646352416,290757894,,0.010679828218435845,-0.006763796076751532,-0.9985141842560341,0.05300581261865135,0.000174,-0.001386,-0.000796,0.169,-0.107,-9.499,-3.057000000000001e-05,3.38e-06,1.762e-05
1646352416.3203278,8479,1646352416,315891742,,0.010670593090218962,-0.006755639392238636,-0.9985147921515425,0.05299726062795077,-0.000697,-0.000719,-0.000981,0.19,-0.124,-9.469,-3.065e-05,3.830000000000001e-06,1.751e-05
1646352416.3456905,8480,1646352416,340953588,,0.010661416984843821,-0.006747389506364368,-0.9985149373781074,0.05299742215918682,-0.001155,-0.000509,-0.000212,0.186,-0.111,-9.457,-3.057000000000001e-05,3.4700000000000002e-06,1.732e-05
1646352416.3704014,8481,1646352416,365861177,,0.010643930858582049,-0.006748409990417805,-0.9985155722239333,0.05298884528643817,0.000103,-0.000311,0.000962,0.184,-0.108,-9.466,-3.031e-05,3.46e-06,1.773e-05
1646352416.3955681,8482,1646352416,391062736,,0.010634116170350927,-0.0067317247285148055,-0.9985171628540906,0.05296295819978732,0.000431,0.001344,-0.000267,0.207,-0.142,-9.471,-3.031e-05,3.6400000000000003e-06,1.7330000000000002e-05
1646352416.421535,8483,1646352416,415823698,,0.010642829806784044,-0.0067312612359626284,-0.998517076761227,0.05296288995221906,0.00024,0.000556,0.000108,0.197,-0.153,-9.442,-3.0480000000000003e-05,3.4700000000000002e-06,1.7820000000000002e-05
1646352416.4456384,8484,1646352416,441093921,,0.010643813074987286,-0.006748595761028792,-0.9985164969016677,0.05297141789400069,0.001656,-0.001099,0.00018,0.21,-0.154,-9.465,-3.057000000000001e-05,3.19e-06,1.732e-05
1646352416.4712553,8485,1646352416,466414928,,0.01065339218715664,-0.006765652557036005,-0.998516755034827,0.052962449859343744,-0.000721,-0.00212,0.00059,0.2,-0.159,-9.442,-3.0390000000000002e-05,3.7400000000000006e-06,1.762e-05
1646352416.495866,8486,1646352416,490852594,,0.010662804450457674,-0.006773530563980477,-0.9985147603896776,0.05299714302578094,-0.000824,-0.000189,0.001231,0.19,-0.16,-9.427,-3.0480000000000003e-05,3.6499999999999998e-06,1.772e-05
1646352416.5210457,8487,1646352416,515995979,,0.01067139985134537,-0.0067732530140565406,-0.998515598912669,0.05297964700613269,-0.001384,0.000862,0.000728,0.221,-0.147,-9.454,-3.057000000000001e-05,3.7400000000000006e-06,1.7610000000000002e-05
1646352416.5463006,8488,1646352416,541232585,,0.01068155980336679,-0.006798837222333313,-0.998514872514045,0.05298801242594227,5e-06,-0.000151,0.000294,0.203,-0.16,-9.451,-3.04e-05,3.3700000000000003e-06,1.7530000000000003e-05
1646352416.571094,8489,1646352416,566074132,,0.010681903394796218,-0.00680773734357356,-0.9985157378065485,0.05297049183054182,0.000209,0.000704,0.000139,0.196,-0.143,-9.488,-3.057000000000001e-05,3.29e-06,1.712e-05
1646352416.5959659,8490,1646352416,591106414,,0.010672549501473212,-0.006799766635382064,-0.9985172699676039,0.05294451281564697,-0.001925,0.00058,-0.000309,0.202,-0.166,-9.451,-3.0390000000000002e-05,3.92e-06,1.752e-05
1646352416.6208458,8491,1646352416,616213083,,0.01067231213833886,-0.0068001391734961005,-0.998519117471411,0.05290965795540036,-0.000551,0.000235,-0.001011,0.215,-0.134,-9.494,-3.0390000000000002e-05,3.7400000000000006e-06,1.762e-05
1646352416.6469069,8492,1646352416,641162633,,0.01067208747303209,-0.00679105292812378,-0.9985173292687413,0.05294460594919518,-0.000871,3.7e-05,-0.00098,0.196,-0.131,-9.475,-3.0480000000000003e-05,3.4700000000000002e-06,1.762e-05
1646352416.6718812,8493,1646352416,666048288,,0.010662508889281717,-0.006773995810145298,-0.9985170718757611,0.05295357454984883,0.000462,-0.000796,0.000457,0.187,-0.119,-9.474,-3.04e-05,3.55e-06,1.762e-05
1646352416.6961293,8494,1646352416,690946817,,0.01067018039178357,-0.006756291209072659,-0.9985180277069537,0.05293626473147225,-0.000938,0.001465,-0.000564,0.203,-0.116,-9.45,-3.049e-05,3.19e-06,1.713e-05
1646352416.7206383,8495,1646352416,715731143,,0.010669256478045182,-0.006738863780820496,-0.9985181454743973,0.0529364509531892,-0.000101,0.00067,-0.000786,0.196,-0.11,-9.485,-3.0390000000000002e-05,3.7400000000000006e-06,1.752e-05
1646352416.745865,8496,1646352416,740944385,,0.010686339255260037,-0.006729037021671944,-0.9985171073036943,0.05295383495031415,-0.000594,0.001084,-0.001149,0.175,-0.122,-9.472,-3.0480000000000003e-05,3.7400000000000006e-06,1.772e-05
1646352416.7705796,8497,1646352416,766029596,,0.010686053079458392,-0.0067200435579233995,-0.9985157793148146,0.05298006930432637,0.00052,0.000482,0.001376,0.202,-0.135,-9.46,-3.057000000000001e-05,3.38e-06,1.772e-05
1646352416.795939,8498,1646352416,791166067,,0.010676759970732886,-0.006711979855000881,-0.9985168489275892,0.05296280327429415,0.000436,-9.7e-05,0.001068,0.188,-0.134,-9.459,-3.031e-05,3.82e-06,1.762e-05
1646352416.8207135,8499,1646352416,816145420,,0.01067641477511612,-0.0067030798138510185,-0.9985159829336353,0.05298032384418935,0.000257,-0.001359,-0.000793,0.202,-0.102,-9.461,-3.031e-05,3.55e-06,1.7330000000000002e-05
1646352416.8456395,8500,1646352416,841108560,,0.010684724475737699,-0.006693809232094217,-0.998515492524172,0.0529890627398918,0.000885,0.000925,0.000646,0.175,-0.128,-9.453,-3.0390000000000002e-05,3.7400000000000006e-06,1.732e-05
1646352416.8707986,8501,1646352416,866019487,,0.010693321274992664,-0.006693532146049749,-0.9985163306410039,0.05297156738048473,0.000348,0.000976,-0.00096,0.221,-0.124,-9.449,-3.075e-05,3.29e-06,1.741e-05
1646352416.8959434,8502,1646352416,890882730,,0.010693783538715853,-0.006702245844597078,-0.9985162721908958,0.05297147406163561,7e-05,-0.000137,-0.000938,0.187,-0.136,-9.482,-3.049e-05,3.2800000000000004e-06,1.7230000000000003e-05
1646352416.9212062,8503,1646352416,916088342,,0.010703076548134575,-0.0067103091690616495,-0.9985152023562013,0.05298874000025845,0.000495,3.8e-05,-0.001071,0.21,-0.15,-9.431,-3.057000000000001e-05,3.5600000000000002e-06,1.781e-05
1646352416.945852,8504,1646352416,940970182,,0.010694825342512855,-0.006719486581268147,-0.9985152303870988,0.052988714798306635,0.000282,-0.001736,-0.001472,0.212,-0.152,-9.464,-3.04e-05,3.46e-06,1.7630000000000002e-05
1646352416.9704673,8505,1646352416,965884685,,0.01068697775447806,-0.006737470944881155,-0.9985156618758461,0.05297988278944678,-1.7e-05,-0.000952,-0.000404,0.187,-0.136,-9.475,-3.04e-05,3.3700000000000003e-06,1.773e-05
1646352416.9957814,8506,1646352416,990864038,,0.010678381728308038,-0.00673774822093843,-0.9985148235170115,0.0529973785141033,0.000496,-0.000239,0.001419,0.178,-0.133,-9.462,-3.04e-05,3.46e-06,1.743e-05
1646352417.0207736,8507,1646352417,15764236,,0.010678322929956121,-0.006737841407141847,-0.9985152859683659,0.05298866482643516,-0.000593,0.000403,-0.000526,0.189,-0.132,-9.471,-3.0480000000000003e-05,3.830000000000001e-06,1.762e-05
1646352417.0458636,8508,1646352417,40928840,,0.010661072105138506,-0.006738489749680076,-0.9985140710889501,0.05301494256182496,-0.000247,0.000194,-0.000668,0.181,-0.166,-9.467,-3.0480000000000003e-05,3.92e-06,1.7610000000000002e-05
1646352417.0705793,8509,1646352417,65937757,,0.010652182066157676,-0.006739232576038073,-0.9985155449138278,0.05298886984034172,-0.000579,-4.5e-05,-0.000695,0.216,-0.145,-9.463,-3.0230000000000004e-05,3.46e-06,1.734e-05
1646352417.0950596,8510,1646352417,90767621,,0.010652240876650827,-0.0067391396179566744,-0.9985150824606844,0.05299758353026958,0.00022,0.000134,-0.00016,0.168,-0.131,-9.467,-3.04e-05,3.6400000000000003e-06,1.762e-05
1646352417.1203952,8511,1646352417,115800142,,0.010651895851551293,-0.006730240020161193,-0.9985142160967183,0.05301510385536195,0.000404,0.000999,-0.000355,0.202,-0.145,-9.458,-3.0480000000000003e-05,3.4700000000000002e-06,1.752e-05
1646352417.1456168,8512,1646352417,141011476,,0.010659970857559247,-0.006721341470174415,-0.9985155761363366,0.052988987566068506,-2.1e-05,0.000562,-0.000381,0.207,-0.126,-9.474,-3.04e-05,3.3700000000000003e-06,1.743e-05
1646352417.1712456,8513,1646352417,165823698,,0.010659449861869216,-0.0067127207992044545,-0.9985160971320268,0.052980366895098455,-0.001337,-0.000731,-0.001197,0.213,-0.137,-9.435,-3.065e-05,3.830000000000001e-06,1.78e-05
1646352417.1962035,8514,1646352417,191142559,,0.010668163488968076,-0.0067122571545396425,-0.9985160108041381,0.05298029878600504,-0.000268,-0.00173,-0.000927,0.189,-0.103,-9.495,-3.031e-05,3.3700000000000003e-06,1.724e-05
1646352417.2206583,8515,1646352417,215870618,,0.010658929016638353,-0.006704100119142715,-0.9985166179772577,0.05297174621503685,2e-06,-0.000588,-0.001126,0.191,-0.134,-9.484,-3.057000000000001e-05,3.38e-06,1.781e-05
1646352417.2440686,8516,1646352417,240672588,,0.010666946679480902,-0.006695295201220806,-0.9985184385622807,0.05293691643693299,-0.000129,-0.001779,-0.001151,0.178,-0.156,-9.482,-3.066e-05,3.11e-06,1.752e-05
1646352417.270693,8517,1646352417,265908479,,0.010666771393406934,-0.0066955744589373735,-0.998519824105325,0.05291077526720235,-8.8e-05,-0.001984,-0.000335,0.199,-0.12,-9.438,-3.0480000000000003e-05,4.1900000000000005e-06,1.751e-05
1646352417.296273,8518,1646352417,290892839,,0.010675198365619493,-0.006686118221059007,-0.9985184105327025,0.05293694164035245,-0.000751,-4.8e-05,-0.000363,0.201,-0.12,-9.479,-3.031e-05,3.7300000000000003e-06,1.7330000000000002e-05
1646352417.3204749,8519,1646352417,315711975,,0.010675835593808547,-0.0066945524473290465,-0.9985169659216543,0.05296298961084238,0.000621,-0.001157,0.001132,0.191,-0.147,-9.475,-3.057000000000001e-05,3.2000000000000003e-06,1.742e-05
1646352417.345525,8520,1646352417,340882778,,0.010676180786986171,-0.00670345248694746,-0.9985178316874839,0.052945469028847114,0.000156,-0.001065,0.001198,0.168,-0.136,-9.456,-3.04e-05,3.2800000000000004e-06,1.7630000000000002e-05
1646352417.3709128,8521,1646352417,366019487,,0.010667408640818568,-0.006704008918163151,-0.9985183800967871,0.05293682334824696,0.001126,-0.000241,0.000949,0.19,-0.149,-9.483,-3.066e-05,3.38e-06,1.7610000000000002e-05
1646352417.393604,8522,1646352417,390801668,,0.010659215537215728,-0.006713092880107836,-0.9985179458873781,0.05294551207576991,0.000365,0.000744,0.000408,0.181,-0.16,-9.458,-3.0480000000000003e-05,3.6499999999999998e-06,1.762e-05
1646352417.4203734,8523,1646352417,415691852,,0.01065124974581249,-0.006731262497749168,-0.9985193005808531,0.05291925312740706,0.000223,0.001992,0.000359,0.191,-0.149,-9.478,-3.057000000000001e-05,3.38e-06,1.732e-05
1646352417.4455335,8524,1646352417,440798521,,0.0106517115530093,-0.006739976222212674,-0.9985192418014857,0.05291916017570328,-5.9e-05,-0.000256,0.000511,0.173,-0.15,-9.484,-3.04e-05,3.46e-06,1.743e-05
1646352417.4710503,8525,1646352417,465930700,,0.01064368561038484,-0.006758238323549447,-0.9985210567891171,0.052884187808213474,-0.000646,-0.000455,-0.001017,0.198,-0.159,-9.448,-3.066e-05,3.4700000000000002e-06,1.741e-05
1646352417.4937987,8526,1646352417,490652084,,0.010644265215551927,-0.006766766286893911,-0.9985200746206792,0.05290152239352662,0.000541,-2.6e-05,0.00033,0.19,-0.152,-9.487,-3.04e-05,3.46e-06,1.7630000000000002e-05
1646352417.5214117,8527,1646352417,516034603,,0.010635894942140164,-0.006776128614550332,-0.9985210247615528,0.05288407065381228,-0.000184,0.001626,-0.000362,0.209,-0.158,-9.46,-3.0480000000000003e-05,3.7400000000000006e-06,1.781e-05
1646352417.545719,8528,1646352417,540908575,,0.010635894942140164,-0.006776128614550332,-0.9985210247615528,0.05288407065381228,-0.000867,-0.000211,0.000304,0.191,-0.131,-9.476,-3.049e-05,3.19e-06,1.743e-05
1646352417.5705357,8529,1646352417,566033363,,0.01064472686801916,-0.006775480018110837,-0.9985200155314827,0.05290142950277505,-0.000341,-0.000416,-0.001178,0.202,-0.123,-9.47,-3.031e-05,3.82e-06,1.772e-05
1646352417.5952756,8530,1646352417,590858936,,0.010626778830396222,-0.0067677849493172374,-0.9985207083224295,0.05289294574745369,-0.000141,-5.8e-05,-0.001033,0.186,-0.161,-9.469,-3.04e-05,3.46e-06,1.7630000000000002e-05
1646352417.6200688,8531,1646352417,615786314,,0.010626612161966373,-0.006758607545062332,-0.9985184584997713,0.0529366071188144,-0.000112,0.000267,6.2e-05,0.214,-0.135,-9.471,-3.0480000000000003e-05,3.6499999999999998e-06,1.772e-05
1646352417.6455817,8532,1646352417,640895843,,0.010634981648865165,-0.0067492449475979165,-0.9985175073606075,0.05295405888432587,-0.000569,0.001378,-2.8e-05,0.209,-0.142,-9.436,-3.04e-05,3.46e-06,1.713e-05
1646352417.6705627,8533,1646352417,665806293,,0.010634922750187037,-0.006749337755063756,-0.9985179694339267,0.05294534517323842,0.000233,-0.001026,-0.000487,0.202,-0.11,-9.442,-3.04e-05,3.19e-06,1.743e-05
1646352417.6961088,8534,1646352417,690886735,,0.010652291144632267,-0.0067485040296374095,-0.9985182591820333,0.05293649465929547,-9.9e-05,-0.000434,-5.1e-05,0.195,-0.148,-9.484,-3.04e-05,3.46e-06,1.7630000000000002e-05
1646352417.7204902,8535,1646352417,715869903,,0.010643233177001932,-0.0067400678210072845,-0.9985174801314448,0.05295408336717454,-0.000554,-0.001052,0.000574,0.201,-0.139,-9.443,-3.0220000000000005e-05,4.18e-06,1.7330000000000002e-05
1646352417.7457356,8536,1646352417,740740060,,0.010634578358947096,-0.006740438434323108,-0.9985171040706895,0.052962865397600534,-0.000236,0.001384,-0.001012,0.175,-0.143,-9.457,-3.057000000000001e-05,3.5600000000000002e-06,1.742e-05
1646352417.7710135,8537,1646352417,765956401,,0.010626385811786248,-0.00674952290070583,-0.9985166689939806,0.05297155469076893,0.000689,-0.00056,0.000976,0.19,-0.152,-9.45,-3.04e-05,3.46e-06,1.7530000000000003e-05
1646352417.7957985,8538,1646352417,790991306,,0.01061859670658724,-0.006767413873754182,-0.998516636964504,0.052971437761695585,0.000912,0.000939,-8.5e-05,0.174,-0.141,-9.475,-3.066e-05,3.38e-06,1.741e-05
1646352417.820426,8539,1646352417,816014528,,0.010601690845269799,-0.006776962199110163,-0.9985162871800397,0.05298019602419038,0.000142,0.001445,-0.000287,0.201,-0.137,-9.479,-3.0480000000000003e-05,3.92e-06,1.751e-05
1646352417.845455,8540,1646352417,840934038,,0.010602390042609107,-0.006785305808179317,-0.9985143780390483,0.05301495826430924,-0.000459,-3.1e-05,-2.8e-05,0.186,-0.155,-9.461,-3.057000000000001e-05,3.830000000000001e-06,1.751e-05
1646352417.8702106,8541,1646352417,865735054,,0.01060227161506717,-0.006785490853760668,-0.9985153031725403,0.05299753089271047,-0.000574,0.000209,-0.001921,0.172,-0.128,-9.498,-3.0480000000000003e-05,3.4700000000000002e-06,1.772e-05
1646352417.8956153,8542,1646352417,890965700,,0.010593095502652639,-0.006777240961557548,-0.9985154480391358,0.052997692023563234,-0.000818,0.000149,2.4e-05,0.206,-0.122,-9.488,-3.0480000000000003e-05,3.4700000000000002e-06,1.772e-05
1646352417.9204712,8543,1646352417,915904760,,0.010601346632042895,-0.006768063473056153,-0.9985154214496145,0.05299771592918635,0.000984,0.001123,-0.000376,0.193,-0.162,-9.493,-3.0390000000000002e-05,3.7400000000000006e-06,1.762e-05
1646352417.9458988,8544,1646352417,940905570,,0.010593095502652639,-0.006777240961557548,-0.9985154480391358,0.052997692023563234,-0.000146,-0.000365,0.001453,0.175,-0.131,-9.494,-3.031e-05,3.82e-06,1.7530000000000003e-05
1646352417.9701006,8545,1646352417,965747117,,0.010602153184295596,-0.006785675897275046,-0.9985162280018672,0.052980103504967284,-0.00055,0.001593,-0.002255,0.179,-0.141,-9.455,-3.057000000000001e-05,3.38e-06,1.772e-05
1646352417.9951396,8546,1646352417,990773916,,0.010593842597629204,-0.006794945691203951,-0.9985167167311905,0.05297136604273794,0.000527,-0.000279,-0.000333,0.201,-0.136,-9.485,-3.04e-05,3.6499999999999998e-06,1.792e-05
1646352418.02176,8547,1646352418,15947580,,0.010585472471185508,-0.00680430771699452,-0.9985176673719904,0.05295391501157717,0.000609,-0.000806,-0.000592,0.207,-0.136,-9.471,-3.057000000000001e-05,3.6499999999999998e-06,1.7610000000000002e-05
1646352418.045524,8548,1646352418,40847539,,0.010584891753595841,-0.006795778748515171,-0.998518650782454,0.05293657995519948,-0.001065,-0.001307,0.001221,0.212,-0.154,-9.481,-3.031e-05,3.46e-06,1.7140000000000002e-05
1646352418.0709538,8549,1646352418,65902233,,0.010594469864826036,-0.006812835371950601,-0.9985189083382134,0.052927612581148545,0.000892,0.000137,-0.000902,0.186,-0.154,-9.471,-3.0480000000000003e-05,3.5600000000000002e-06,1.752e-05
1646352418.0956206,8550,1646352418,90794324,,0.010594469864826036,-0.006812835371950601,-0.9985189083382134,0.052927612581148545,-0.000649,-0.000327,6e-05,0.188,-0.143,-9.501,-3.04e-05,3.46e-06,1.772e-05
1646352418.1211226,8551,1646352418,115849971,,0.010594991273817458,-0.0068214566345068065,-0.9985183869292221,0.05293623384370484,-0.000692,0.000464,-0.000398,0.212,-0.156,-9.479,-3.04e-05,3.19e-06,1.7330000000000002e-05
1646352418.14581,8552,1646352418,140986680,,0.010603585870029804,-0.006821178433687603,-0.9985192250134944,0.05291873741807778,6e-06,0.001031,0.000809,0.187,-0.129,-9.463,-3.056e-05,4.01e-06,1.741e-05
1646352418.170606,8553,1646352418,165820598,,0.01061171882754968,-0.006812186802804584,-0.9985201222007156,0.052901333582023896,-0.000239,0.002357,0.000636,0.17,-0.143,-9.473,-3.04e-05,3.3700000000000003e-06,1.743e-05
1646352418.195369,8554,1646352418,190776586,,0.010620894139540494,-0.006820437568215935,-0.9985199768866441,0.05290117198465964,0.000664,0.000883,-0.001618,0.184,-0.156,-9.457,-3.057000000000001e-05,3.5600000000000002e-06,1.692e-05
1646352418.2198822,8555,1646352418,215788841,,0.010620610816194899,-0.006811445792727843,-0.9985186510741116,0.052927405842721924,-0.000575,-5.8e-05,0.000225,0.186,-0.143,-9.473,-3.057000000000001e-05,3.4700000000000002e-06,1.762e-05
1646352418.245544,8556,1646352418,240831375,,0.010629205589343885,-0.006811168114287897,-0.9985194887715382,0.05290990947718669,-0.000173,0.000363,-0.001059,0.216,-0.155,-9.5,-3.03e-05,4.1900000000000005e-06,1.742e-05
1646352418.271103,8557,1646352418,265911817,,0.010620729696733186,-0.0068112604270630945,-0.9985177271645321,0.0529448332727635,0.000111,0.000794,-0.000184,0.187,-0.123,-9.467,-3.04e-05,3.2800000000000004e-06,1.783e-05
1646352418.2954988,8558,1646352418,290748119,,0.0106289219470725,-0.006802176125471689,-0.9985181626493658,0.052936143394996235,-0.000442,-0.000352,-0.001852,0.206,-0.138,-9.475,-3.04e-05,3.3700000000000003e-06,1.7230000000000003e-05
1646352418.3208072,8559,1646352418,316121339,,0.01061962776768162,-0.006794111027581112,-0.9985192316465294,0.05291887747718459,-0.000508,0.000495,0.000378,0.208,-0.139,-9.477,-3.04e-05,3.2800000000000004e-06,1.703e-05
1646352418.3457603,8560,1646352418,340785503,,0.010628341421764538,-0.006793647911009754,-0.9985191457310614,0.052918808709146024,7.5e-05,-0.001041,-0.000651,0.202,-0.138,-9.456,-3.057000000000001e-05,3.4700000000000002e-06,1.762e-05
1646352418.3706815,8561,1646352418,365885734,,0.010636711681247229,-0.006784285426437181,-0.9985181952233004,0.05293626019908902,-0.000229,0.002168,-0.001402,0.199,-0.15,-9.471,-3.049e-05,3.2800000000000004e-06,1.713e-05
1646352418.396158,8562,1646352418,390873670,,0.010637055075038059,-0.006793184793921032,-0.9985190597395516,0.052918739937077464,0.000131,-0.000329,-0.000653,0.208,-0.115,-9.478,-3.031e-05,3.46e-06,1.7530000000000003e-05
1646352418.4204473,8563,1646352418,415753364,,0.01064570944941695,-0.006792814577914181,-0.9985194354365032,0.05290995743709684,-0.000219,0.000752,-0.000408,0.189,-0.157,-9.459,-3.066e-05,3.6499999999999998e-06,1.7610000000000002e-05
1646352418.4454322,8564,1646352418,440810680,,0.010637919245456923,-0.006810705071739387,-0.99851940278751,0.05290984055378656,0.000431,-0.000758,-0.000669,0.188,-0.17,-9.487,-3.057000000000001e-05,3.7400000000000006e-06,1.741e-05
1646352418.4710574,8565,1646352418,465957880,,0.010629265027593909,-0.006811075356711345,-0.9985190270074539,0.052918623201534204,0.000371,0.000834,-2.6e-05,0.205,-0.14,-9.459,-3.0220000000000005e-05,3.82e-06,1.7630000000000002e-05
1646352418.4954634,8566,1646352418,490728378,,0.010638842694760998,-0.006828132521924863,-0.9985192837661989,0.05290965487901154,-0.000509,-0.000396,-5.7e-05,0.207,-0.155,-9.464,-3.0480000000000003e-05,3.6499999999999998e-06,1.752e-05
1646352418.520975,8567,1646352418,515751123,,0.010648018071693173,-0.006836383200917881,-0.9985191380935335,0.05290949288002768,4e-05,0.000819,-0.001128,0.207,-0.128,-9.498,-3.057000000000001e-05,3.6499999999999998e-06,1.781e-05
1646352418.5458698,8568,1646352418,540795803,,0.010647958412589838,-0.006836476122144648,-0.9985195997779409,0.052900779154711544,-0.000104,0.000684,0.000971,0.193,-0.13,-9.497,-3.0390000000000002e-05,3.7400000000000006e-06,1.752e-05
1646352418.5704718,8569,1646352418,565773010,,0.01064749676579784,-0.006827762394553534,-0.9985196593994289,0.05290087207366369,-0.00018,4.7e-05,6.5e-05,0.199,-0.148,-9.478,-3.049e-05,3.01e-06,1.7530000000000003e-05
1646352418.594983,8570,1646352418,590775251,,0.010638485159994857,-0.006828689561065627,-0.9985220527405002,0.052857372459069026,-0.000135,1e-05,-0.000161,0.201,-0.16,-9.488,-3.031e-05,3.3700000000000003e-06,1.7140000000000002e-05
1646352418.620462,8571,1646352418,615773677,,0.010647079661662041,-0.006828412800378823,-0.9985228890667893,0.05283987588004153,-0.000448,0.000235,0.000889,0.176,-0.134,-9.459,-3.04e-05,3.46e-06,1.7230000000000003e-05
1646352418.6456208,8572,1646352418,640802145,,0.010655391741206938,-0.006819143622500185,-0.9985224013278885,0.05284861354363237,-0.000295,0.001099,-0.000121,0.199,-0.147,-9.471,-3.0480000000000003e-05,3.5600000000000002e-06,1.722e-05
1646352418.6706424,8573,1646352418,665792465,,0.01065475224935705,-0.00681070881355716,-0.9985238440318348,0.05282256525245245,0.000153,-0.000109,-0.000354,0.18,-0.149,-9.49,-3.057000000000001e-05,3.2000000000000003e-06,1.762e-05
1646352418.6951995,8574,1646352418,690745115,,0.010662767554988625,-0.0068019049709347355,-0.9985256604541303,0.05278773429005808,-0.001263,0.000519,4e-05,0.188,-0.127,-9.424,-3.057000000000001e-05,3.6499999999999998e-06,1.741e-05
1646352418.7206445,8575,1646352418,715757369,,0.010654172566277808,-0.006802181000355306,-0.9985248252056824,0.05280523069287565,0.000593,-0.000382,-0.000122,0.186,-0.127,-9.429,-3.04e-05,3.46e-06,1.7530000000000003e-05
1646352418.7456539,8576,1646352418,741064310,,0.010653711753303199,-0.00679346722716504,-0.9985248845278887,0.052805323666060146,0.000163,-0.001363,-0.000602,0.194,-0.116,-9.498,-3.0480000000000003e-05,3.6499999999999998e-06,1.752e-05
1646352418.7710931,8577,1646352418,765886783,,0.010653652468712166,-0.006793560198080188,-0.9985253453032479,0.05279660989060066,-0.002063,-0.000243,-0.001073,0.185,-0.141,-9.485,-3.04e-05,3.2800000000000004e-06,1.7230000000000003e-05
1646352418.7964137,8578,1646352418,790916442,,0.01065331014725497,-0.006784660486046608,-0.9985244829218405,0.05281413040717867,0.001033,0.000369,0.000592,0.224,-0.135,-9.489,-3.049e-05,3.3700000000000003e-06,1.792e-05
1646352418.8206773,8579,1646352418,815969467,,0.010661562957106012,-0.006775484511202322,-0.9985244558562476,0.052814154749790315,-0.001004,-0.001056,-0.001054,0.198,-0.137,-9.451,-3.0470000000000005e-05,4.28e-06,1.7310000000000002e-05
1646352418.8461955,8580,1646352418,840980529,,0.010679345056148811,-0.00677400094045741,-0.9985215164540702,0.05286630002841761,-0.000116,-0.000188,-0.000179,0.213,-0.126,-9.459,-3.049e-05,3.2800000000000004e-06,1.742e-05
1646352418.870776,8581,1646352418,865909814,,0.010679167709559161,-0.006774280522735742,-0.9985229001483804,0.05284015877813258,0.001217,0.000749,-0.000531,0.223,-0.155,-9.494,-3.0390000000000002e-05,3.7400000000000006e-06,1.752e-05
1646352418.8959384,8582,1646352418,891009330,,0.01068898141816124,-0.0067909657635929375,-0.9985213116220055,0.052866044838910484,0.001483,-0.001532,-0.000486,0.197,-0.16,-9.468,-3.057000000000001e-05,3.4700000000000002e-06,1.781e-05
1646352418.920724,8583,1646352418,915732145,,0.010688922155398252,-0.00679105904229407,-0.9985217729272572,0.05285733109462817,-0.000194,0.000486,-0.000929,0.202,-0.147,-9.436,-3.031e-05,3.55e-06,1.713e-05
1646352418.9456182,8584,1646352418,940863370,,0.010689725856096366,-0.006808673105798614,-0.9985225766279552,0.05283971703112366,-0.000349,0.00023,8e-06,0.18,-0.159,-9.461,-3.0230000000000004e-05,3.46e-06,1.724e-05
1646352418.9704015,8585,1646352418,965821027,,0.010681071593059093,-0.0068090423334556385,-0.9985222019209048,0.05284849972471597,0.000218,-0.000407,0.000242,0.208,-0.143,-9.466,-3.0390000000000002e-05,3.7400000000000006e-06,1.772e-05
1646352418.9977875,8586,1646352418,990842103,,0.010681190431639892,-0.006808855912551635,-0.9985212793884962,0.05286592721674331,0.000936,0.001132,-0.000533,0.197,-0.155,-9.465,-3.0220000000000005e-05,4.000000000000001e-06,1.7530000000000003e-05
1646352419.0211592,8587,1646352419,16100406,,0.010681546927860087,-0.006808296637395263,-0.9985185099662699,0.05291820959618171,-0.00089,-0.000711,0.000677,0.173,-0.127,-9.482,-3.066e-05,3.38e-06,1.751e-05
1646352419.0464995,8588,1646352419,40915727,,0.010681368683410438,-0.006808576277306708,-0.9985198950195704,0.05289206842458855,-0.000359,0.001134,0.00134,0.2,-0.146,-9.501,-3.031e-05,3.82e-06,1.7330000000000002e-05
1646352419.0709963,8589,1646352419,65917253,,0.010681428099040428,-0.0068084830645213845,-0.9985194334111784,0.05290078215248193,0.000372,-0.001939,0.001004,0.191,-0.137,-9.47,-3.031e-05,3.3700000000000003e-06,1.694e-05
1646352419.0956953,8590,1646352419,90806961,,0.010681309266967016,-0.006808669489573529,-0.9985203565519207,0.05288335469266722,-0.0007,0.000765,-0.001252,0.186,-0.128,-9.479,-3.031e-05,3.6400000000000003e-06,1.7330000000000002e-05
1646352419.1216242,8591,1646352419,115876913,,0.010672252795523408,-0.006800232306729973,-0.998519579157259,0.05290094423026418,0.000313,-0.000657,-0.000531,0.194,-0.132,-9.479,-3.0390000000000002e-05,3.92e-06,1.762e-05
1646352419.1464717,8592,1646352419,141120910,,0.010679758836393032,-0.0067733485637528545,-0.998518285172553,0.05292729613814232,-0.000653,0.000424,0.000397,0.195,-0.132,-9.483,-3.0480000000000003e-05,3.6499999999999998e-06,1.742e-05
1646352419.1721106,8593,1646352419,165756464,,0.010687489773043535,-0.0067555512039891305,-0.9985187786151756,0.05291870031604692,0.00027,0.001068,-0.000837,0.191,-0.15,-9.459,-3.04e-05,3.46e-06,1.7820000000000002e-05
1646352419.1936562,8594,1646352419,190725088,,0.010678373199360611,-0.006747207413858209,-0.9985184621562168,0.05292757571543691,6.8e-05,-4e-05,-0.000297,0.197,-0.143,-9.453,-3.031e-05,3.2800000000000004e-06,1.773e-05
1646352419.2208338,8595,1646352419,216038465,,0.010677793708195391,-0.006738680059881525,-0.9985194446086929,0.052910241455912915,-0.000244,-0.00106,4.9e-05,0.198,-0.106,-9.491,-3.04e-05,3.19e-06,1.7530000000000003e-05
1646352419.246151,8596,1646352419,240603208,,0.010676811594247219,-0.006721345779916335,-0.9985200237613302,0.052901714081495216,0.000871,-0.000289,-0.000198,0.213,-0.129,-9.446,-3.049e-05,3.1e-06,1.772e-05
1646352419.2715106,8597,1646352419,266051769,,0.010685583905873656,-0.006720789568787572,-0.9985194755880783,0.0529103596233451,0.000794,0.000302,0.000839,0.177,-0.134,-9.472,-3.0480000000000003e-05,4.01e-06,1.722e-05
1646352419.295367,8598,1646352419,290727853,,0.010677222157975449,-0.006720693558070408,-0.9985167903164945,0.05296271009997001,0.001377,0.001269,0.000742,0.189,-0.14,-9.444,-3.066e-05,3.29e-06,1.7610000000000002e-05
1646352419.320725,8599,1646352419,315757989,,0.01068691895854551,-0.00673756420609906,-0.9985161241745213,0.05297116909446347,0.000605,0.000375,4.1e-05,0.216,-0.145,-9.481,-3.031e-05,3.7300000000000003e-06,1.743e-05
1646352419.345334,8600,1646352419,340824127,,0.010696330311940496,-0.00674544096141035,-0.9985141291544307,0.05300586215752897,-0.000152,-0.000539,-0.000163,0.203,-0.151,-9.448,-3.049e-05,3.19e-06,1.7530000000000003e-05
1646352419.3694677,8601,1646352419,365802288,,0.010696448040465621,-0.006745254274201149,-0.9985132038755309,0.053023289508635996,8.9e-05,-7.7e-05,0.000249,0.21,-0.138,-9.49,-3.0480000000000003e-05,3.4700000000000002e-06,1.772e-05
1646352419.396408,8602,1646352419,390800476,,0.010706028057957425,-0.006762311012734721,-0.9985134620670105,0.05301432055531769,-0.000449,0.000899,-3e-05,0.188,-0.145,-9.44,-3.0480000000000003e-05,3.830000000000001e-06,1.752e-05
1646352419.4211445,8603,1646352419,415925264,,0.010706028057957425,-0.006762311012734721,-0.9985134620670105,0.05301432055531769,-7.6e-05,-0.000231,-0.000452,0.174,-0.16,-9.491,-3.0480000000000003e-05,3.4700000000000002e-06,1.742e-05
1646352419.444977,8604,1646352419,440760374,,0.010706490694771961,-0.0067710246862464,-0.998513403016694,0.053014227125579357,0.0004,0.000865,-0.002206,0.193,-0.13,-9.459,-3.04e-05,3.46e-06,1.7330000000000002e-05
1646352419.4709914,8605,1646352419,465869665,,0.010706894165985071,-0.006779831794778517,-0.998513806487907,0.05300542001704759,0.000711,0.000269,-0.000129,0.203,-0.134,-9.464,-3.0480000000000003e-05,3.92e-06,1.781e-05
1646352419.4957952,8606,1646352419,490757226,,0.010715145212737713,-0.006770654237107574,-0.9985137789371054,0.0530054447864864,-0.000735,0.001475,-2e-05,0.201,-0.117,-9.464,-3.04e-05,3.3700000000000003e-06,1.773e-05
1646352419.5212348,8607,1646352419,516145706,,0.010714564632804674,-0.006762127565776068,-0.9985147629532716,0.05298811092957795,-0.000484,-0.00083,-0.000294,0.176,-0.124,-9.438,-3.057000000000001e-05,3.6499999999999998e-06,1.751e-05
1646352419.5460727,8608,1646352419,541271448,,0.010705102781882452,-0.006744883664167091,-0.9985135799395205,0.05301450740268257,0.000233,-0.000156,-9.8e-05,0.205,-0.114,-9.437,-3.0480000000000003e-05,3.7400000000000006e-06,1.702e-05
1646352419.571013,8609,1646352419,566010951,,0.010696279251419605,-0.006736073895614076,-0.9985109481689166,0.05306695116039436,0.001618,-0.00035,0.001055,0.202,-0.119,-9.453,-3.04e-05,3.3700000000000003e-06,1.743e-05
1646352419.5955255,8610,1646352419,590891599,,0.010686985147206804,-0.006728011175743126,-0.9985120194999529,0.053049685467570454,0.000848,-0.000483,0.001256,0.197,-0.142,-9.481,-3.057000000000001e-05,3.38e-06,1.752e-05
1646352419.621055,8611,1646352419,615807056,,0.010686522200960603,-0.006719297514306546,-0.998512078174906,0.053049778727089436,0.000656,-0.000712,-0.000272,0.194,-0.124,-9.461,-3.049e-05,3.3700000000000003e-06,1.752e-05
1646352419.6476755,8612,1646352419,641456842,,0.010685942130490044,-0.00671077035825422,-0.9985130625166698,0.053032444650081376,-0.0004,-0.000803,0.000245,0.186,-0.157,-9.463,-3.0480000000000003e-05,4.01e-06,1.751e-05
1646352419.6705315,8613,1646352419,665987014,,0.010694597171985022,-0.006710399584034251,-0.9985134387209937,0.05302366285280544,0.000194,0.001137,0.0008,0.199,-0.126,-9.454,-3.057000000000001e-05,3.4700000000000002e-06,1.771e-05
1646352419.6956573,8614,1646352419,690844058,,0.01070371486165578,-0.0067187426374649105,-0.9985137561779766,0.05301478764345021,0.000831,0.000251,0.00066,0.198,-0.143,-9.455,-3.066e-05,3.29e-06,1.7610000000000002e-05
1646352419.7203805,8615,1646352419,715766429,,0.01069505989032692,-0.006719113257344173,-0.9985133801236897,0.05302356952282002,-7.8e-05,-0.00061,-0.001606,0.23,-0.142,-9.451,-3.0390000000000002e-05,4.1900000000000005e-06,1.742e-05
1646352419.7465055,8616,1646352419,741234779,,0.010704412328551027,-0.0067270826631640485,-0.9985118463376041,0.05304954890488872,0.000619,0.000383,0.000687,0.187,-0.144,-9.462,-3.04e-05,3.55e-06,1.772e-05
1646352419.7716906,8617,1646352419,765753746,,0.010696102897751865,-0.006736353921241602,-0.9985123371162649,0.053040810186717635,0.001944,0.000669,-0.00072,0.216,-0.134,-9.489,-3.0390000000000002e-05,4.01e-06,1.752e-05
1646352419.7954865,8618,1646352419,791217565,,0.010705110389916285,-0.006735422647834513,-0.9985099352110557,0.05308431009354919,0.000604,-0.001016,-0.000128,0.163,-0.149,-9.472,-3.04e-05,3.2800000000000004e-06,1.7630000000000002e-05
1646352419.8210475,8619,1646352419,816163539,,0.010696977778506403,-0.006744414156333365,-0.9985090363564497,0.053101712388663534,0.001386,-0.000564,-0.000706,0.185,-0.124,-9.463,-3.0390000000000002e-05,4.01e-06,1.762e-05
1646352419.8451872,8620,1646352419,840780019,,0.010696690714800904,-0.006735420484529162,-0.998507704630339,0.05312794662416491,-0.000721,0.00047,0.000289,0.181,-0.147,-9.482,-3.04e-05,3.46e-06,1.703e-05
1646352419.8711917,8621,1646352419,866020202,,0.010696808268435661,-0.0067352337910312685,-0.9985067772206643,0.05314537386312446,-0.000619,-0.000429,0.000521,0.225,-0.146,-9.455,-3.066e-05,3.38e-06,1.7610000000000002e-05
1646352419.8971865,8622,1646352419,890814781,,0.010696631936761623,-0.006735513830508716,-0.9985081682211154,0.0531192329986158,-0.000437,-0.001127,-0.001434,0.212,-0.141,-9.451,-3.0480000000000003e-05,3.5600000000000002e-06,1.732e-05
1646352419.9199994,8623,1646352419,915755271,,0.010697213196455675,-0.006744040757260015,-0.9985071821486844,0.05313656689689563,0.000188,0.001377,-0.001387,0.198,-0.136,-9.458,-3.04e-05,3.3700000000000003e-06,1.743e-05
1646352419.9452817,8624,1646352419,940932273,,0.010697036634215664,-0.0067443208073354344,-0.9985085729185695,0.05311042602178922,0.000132,0.000644,-0.001016,0.197,-0.124,-9.491,-3.049e-05,3.3700000000000003e-06,1.742e-05
1646352419.9705482,8625,1646352419,965861797,,0.010687800812076462,-0.006736165233959482,-0.9985091817100692,0.05310187409527509,-0.000485,0.000518,0.000302,0.199,-0.137,-9.477,-3.0220000000000005e-05,3.910000000000001e-06,1.7330000000000002e-05
1646352419.995873,8626,1646352419,991450786,,0.010705404267979977,-0.0067349555428652804,-0.9985076180205648,0.053127878257961114,0.000288,0.002847,0.001075,0.221,-0.141,-9.448,-3.04e-05,3.55e-06,1.7230000000000003e-05
1646352420.020819,8627,1646352420,15948534,,0.010714463754791544,-0.00674339122614301,-0.9985083996287057,0.05311028913627999,7.1e-05,-0.000668,-0.000623,0.211,-0.153,-9.465,-3.056e-05,4.01e-06,1.7610000000000002e-05
1646352420.045067,8628,1646352420,41140079,,0.010723236156581325,-0.006742832857144523,-0.9985078493575836,0.05311893431427003,0.000326,4.2e-05,0.000308,0.212,-0.121,-9.475,-3.04e-05,3.46e-06,1.7530000000000003e-05
1646352420.070602,8629,1646352420,65887689,,0.010731832032617291,-0.00674255529605504,-0.9985086894701701,0.053101438604493914,0.000303,-0.000521,-0.001054,0.213,-0.147,-9.467,-3.04e-05,3.19e-06,1.7630000000000002e-05
1646352420.0936928,8630,1646352420,90763330,,0.010731368634738062,-0.006733841663677899,-0.9985087482720446,0.053101532255373826,-0.000338,-0.001251,-0.000613,0.224,-0.171,-9.463,-3.057000000000001e-05,3.38e-06,1.712e-05
1646352420.120613,8631,1646352420,115948438,,0.010740427920788526,-0.006742278036558872,-0.998509529200163,0.05308394287753073,-2.7e-05,0.000895,0.001783,0.217,-0.132,-9.468,-3.057000000000001e-05,3.5600000000000002e-06,1.752e-05
1646352420.1463697,8632,1646352420,140718698,,0.010740023436613599,-0.006733470672724754,-0.998509124715988,0.053092750241364714,-0.000907,-0.001737,0.000868,0.172,-0.134,-9.463,-3.0220000000000005e-05,3.46e-06,1.754e-05
1646352420.170623,8633,1646352420,165798664,,0.010748214999540826,-0.006724386193367678,-0.9985095597260164,0.05308406201867849,5.9e-05,-0.000233,-0.000348,0.198,-0.123,-9.462,-3.04e-05,3.55e-06,1.762e-05
1646352420.195822,8634,1646352420,190918922,,0.010747868962260852,-0.006715484968718687,-0.9985086917239544,0.05310158308489469,0.001215,0.000731,0.000114,0.185,-0.131,-9.479,-3.031e-05,3.910000000000001e-06,1.752e-05
1646352420.220705,8635,1646352420,215908050,,0.010730324611348421,-0.006716601677903109,-0.9985097922954341,0.053084292269599084,0.000453,-0.000889,-0.001545,0.198,-0.125,-9.465,-3.057000000000001e-05,3.38e-06,1.762e-05
1646352420.2473032,8636,1646352420,241276502,,0.010730324611348421,-0.006716601677903109,-0.9985097922954341,0.053084292269599084,0.001415,0.001128,0.000202,0.184,-0.12,-9.489,-3.049e-05,3.01e-06,1.7330000000000002e-05
1646352420.272927,8637,1646352420,265890121,,0.010704242517455071,-0.006717901948944095,-0.9985095893266287,0.05309321056688171,0.000338,-0.000209,-0.000213,0.189,-0.131,-9.468,-3.031e-05,3.82e-06,1.762e-05
1646352420.2961025,8638,1646352420,290892601,,0.01071353680374757,-0.006725963965934477,-0.9985085171710039,0.05311047613086093,0.001002,-0.00118,0.000332,0.215,-0.127,-9.496,-3.04e-05,3.55e-06,1.7330000000000002e-05
1646352420.3204954,8639,1646352420,315692901,,0.010722250364005242,-0.006725499176082241,-0.9985084304038987,0.05311040783411975,5.5e-05,-0.000887,-0.000456,0.221,-0.146,-9.449,-3.057000000000001e-05,3.4700000000000002e-06,1.732e-05
1646352420.3460665,8640,1646352420,340789556,,0.01072213298026769,-0.006725686313629956,-0.9985093572033009,0.05309298056631181,0.000128,7.9e-05,0.000706,0.198,-0.141,-9.488,-3.0480000000000003e-05,3.5600000000000002e-06,1.762e-05
1646352420.3711874,8641,1646352420,366086483,,0.010722537534385273,-0.006734493523369836,-0.9985097617574185,0.05308417335657207,0.00023,8.8e-05,-0.000818,0.195,-0.151,-9.475,-3.0480000000000003e-05,3.5600000000000002e-06,1.772e-05
1646352420.3970902,8642,1646352420,390944242,,0.010723464026357862,-0.006751920805299199,-0.9985096440662513,0.053083986204902754,-0.001094,-0.000767,0.000795,0.209,-0.173,-9.432,-3.049e-05,3.19e-06,1.703e-05
1646352420.420947,8643,1646352420,416108369,,0.010732640840336163,-0.006760169880217954,-0.9985094982778889,0.05308382402033105,-0.000355,-1e-06,-0.001194,0.218,-0.156,-9.496,-3.0480000000000003e-05,3.830000000000001e-06,1.722e-05
1646352420.4453702,8644,1646352420,440891981,,0.01073304501362111,-0.006768977182883998,-0.9985099024511739,0.053075016717664916,-0.000419,0.00063,-0.000355,0.183,-0.136,-9.47,-3.057000000000001e-05,3.5600000000000002e-06,1.702e-05
1646352420.4702635,8645,1646352420,465722084,,0.010741581382546416,-0.006768793908638666,-0.9985112047065765,0.05304880709163973,0.000565,0.000428,0.00026,0.185,-0.166,-9.43,-3.049e-05,3.3700000000000003e-06,1.7230000000000003e-05
1646352420.4959283,8646,1646352420,490910053,,0.010733852899041402,-0.006786591809371839,-0.9985107103365941,0.05305740209117712,0.001004,-0.001572,-0.000178,0.174,-0.155,-9.449,-3.0390000000000002e-05,3.830000000000001e-06,1.732e-05
1646352420.5217175,8647,1646352420,515944004,,0.010725257774306867,-0.00678686895877143,-0.9985098709753092,0.05307489821264313,-0.001368,0.000224,0.000728,0.147,-0.125,-9.451,-3.0480000000000003e-05,3.4700000000000002e-06,1.762e-05
1646352420.5455356,8648,1646352420,540792226,,0.01070724914247078,-0.0067792711738175505,-0.9985110297618651,0.05305770200501439,0.001125,-1e-06,0.000437,0.197,-0.136,-9.461,-3.057000000000001e-05,3.4700000000000002e-06,1.752e-05
1646352420.5706542,8649,1646352420,565726995,,0.010707652921109723,-0.006788078268260502,-0.998511433540504,0.05304889491057156,-0.000183,0.00172,-0.000995,0.187,-0.139,-9.445,-3.031e-05,3.2800000000000004e-06,1.743e-05
1646352420.5950184,8650,1646352420,590808153,,0.010697717998501026,-0.006771581997867879,-0.998513952217014,0.053005582110091445,-3.1e-05,0.000518,0.00035,0.195,-0.14,-9.469,-3.031e-05,3.7300000000000003e-06,1.7630000000000002e-05
1646352420.6213386,8651,1646352420,616008043,,0.010697373469818576,-0.006762681616205166,-0.9985130859965526,0.053023102812323517,5.7e-05,6e-06,-0.000579,0.179,-0.133,-9.433,-3.057000000000001e-05,3.6499999999999998e-06,1.771e-05
1646352420.6464686,8652,1646352420,641112089,,0.010696389176610347,-0.006745347618062595,-0.9985136665530014,0.0530145758351009,0.000708,0.001702,-0.000582,0.22,-0.142,-9.469,-3.057000000000001e-05,3.29e-06,1.722e-05
1646352420.6709774,8653,1646352420,666189670,,0.010704926197572484,-0.006745163920791084,-0.9985149675138933,0.052988366360124224,0.00022,0.001601,0.000608,0.183,-0.124,-9.448,-3.031e-05,3.55e-06,1.7230000000000003e-05
1646352420.6960118,8654,1646352420,690784931,,0.01069661604792124,-0.006754434679812072,-0.9985154575969301,0.052979627757027616,0.000761,0.000537,-0.000654,0.184,-0.119,-9.443,-3.041e-05,2.92e-06,1.7440000000000002e-05
1646352420.721125,8655,1646352420,716106653,,0.010696330311940496,-0.00674544096141035,-0.9985141291544307,0.05300586215752897,0.000561,-0.000587,0.000932,0.208,-0.123,-9.454,-3.0480000000000003e-05,3.4700000000000002e-06,1.752e-05
1646352420.7462225,8656,1646352420,741462707,,0.010713757529766336,-0.0067445132051868195,-0.9985139558502333,0.05300572529016737,-0.000437,0.000568,-0.00061,0.219,-0.143,-9.448,-3.031e-05,3.55e-06,1.783e-05
1646352420.7714183,8657,1646352420,766041040,,0.010731125895035243,-0.00674367909390523,-0.9985142447648705,0.05299687472807769,-0.000805,-4.9e-05,-4.7e-05,0.201,-0.142,-9.471,-3.0480000000000003e-05,4.01e-06,1.781e-05
1646352420.795474,8658,1646352420,790898084,,0.010731647304939782,-0.006752299123215236,-0.9985137233549659,0.05300549475738779,-0.000447,-0.000218,-0.00066,0.18,-0.149,-9.477,-3.057000000000001e-05,3.38e-06,1.732e-05
1646352420.820127,8659,1646352420,816003084,,0.01073228686395704,-0.006760731830711297,-0.9985122763716785,0.05303154211251654,0.000432,-0.000648,0.000134,0.188,-0.139,-9.46,-3.057000000000001e-05,3.29e-06,1.712e-05
1646352420.8454726,8660,1646352420,840785264,,0.010740419830866547,-0.006751741514959933,-0.9985131738431461,0.0530141399068105,-9.7e-05,0.000817,-0.001091,0.214,-0.143,-9.471,-3.031e-05,3.55e-06,1.743e-05
1646352420.8709457,8661,1646352420,865980148,,0.010740419830866547,-0.006751741514959933,-0.9985131738431461,0.0530141399068105,-4.9e-05,-0.000632,0.000224,0.173,-0.124,-9.447,-3.0480000000000003e-05,3.46e-06,1.703e-05
1646352420.8950624,8662,1646352420,890773296,,0.010740419830866547,-0.006751741514959933,-0.9985131738431461,0.0530141399068105,-0.000577,0.000216,-0.001043,0.2,-0.152,-9.393,-3.04e-05,3.6400000000000003e-06,1.752e-05
1646352420.920735,8663,1646352420,915785312,,0.01073194191935337,-0.006751830860338588,-0.9985114096034393,0.0530490630871637,0.001161,-0.00095,-0.000538,0.175,-0.166,-9.447,-3.057000000000001e-05,3.830000000000001e-06,1.741e-05
1646352420.9459174,8664,1646352420,940956592,,0.010723405104325099,-0.006752014384919344,-0.9985101072734006,0.05307527256243055,4e-05,-0.000504,0.000795,0.186,-0.141,-9.467,-3.0220000000000005e-05,3.82e-06,1.7530000000000003e-05
1646352420.9710543,8665,1646352420,965975999,,0.010723346181475704,-0.006752107964025294,-0.998510570404509,0.05306655891591643,-0.00075,-0.00044,0.000361,0.206,-0.138,-9.499,-3.058e-05,3.1e-06,1.703e-05
1646352420.99694,8666,1646352420,991137027,,0.010731478978536749,-0.006743117204223454,-0.9985114684862583,0.05304915673900455,-0.001005,-0.000239,0.000495,0.189,-0.129,-9.461,-3.066e-05,3.2000000000000003e-06,1.752e-05
1646352421.0214653,8667,1646352421,15860557,,0.010731302440463554,-0.00674339815137527,-0.9985128569677494,0.0530230157517116,-0.000888,-0.000751,-0.001235,0.207,-0.114,-9.479,-3.0480000000000003e-05,3.830000000000001e-06,1.732e-05
1646352421.0454626,8668,1646352421,40799140,,0.010740192564343486,-0.006742652944111747,-0.9985113815710022,0.05304908828740315,0.001018,5.2e-05,0.000785,0.225,-0.146,-9.47,-3.049e-05,3.19e-06,1.7530000000000003e-05
1646352421.0705106,8669,1646352421,65884113,,0.010740537669350361,-0.0067515540582424975,-0.9985122484197724,0.053031567241243374,-0.000363,-0.00178,-0.000469,0.198,-0.143,-9.449,-3.057000000000001e-05,3.38e-06,1.722e-05
1646352421.0963764,8670,1646352421,90836763,,0.01074965505773939,-0.006759897419795411,-0.998512565227227,0.0530226912402234,0.000486,0.000224,-0.000272,0.193,-0.152,-9.487,-3.057000000000001e-05,3.6499999999999998e-06,1.7610000000000002e-05
1646352421.120586,8671,1646352421,115098953,,0.010741000456669312,-0.006760267721163515,-0.998512189463328,0.0530314735103512,-6.1e-05,0.000935,-0.000333,0.205,-0.144,-9.493,-3.0220000000000005e-05,4.09e-06,1.7530000000000003e-05
1646352421.1461954,8672,1646352421,140748977,,0.010740773336502689,-0.006751179138637762,-0.9985103966605327,0.053066421861640366,0.000471,-0.000621,0.000284,0.173,-0.13,-9.491,-3.0480000000000003e-05,3.6499999999999998e-06,1.762e-05
1646352421.1703258,8673,1646352421,165768384,,0.010732118678194144,-0.006751549896442368,-0.998510020440031,0.05307520403655537,0.000664,0.000418,0.001324,0.189,-0.134,-9.496,-3.049e-05,3.3700000000000003e-06,1.732e-05
1646352421.1949062,8674,1646352421,190774679,,0.010731478978536749,-0.006743117204223454,-0.9985114684862583,0.05304915673900455,0.000533,0.001333,0.000604,0.199,-0.125,-9.493,-3.031e-05,3.7300000000000003e-06,1.743e-05
1646352421.2188184,8675,1646352421,215938568,,0.010731596666499305,-0.006742929903554646,-0.9985105424517258,0.05306658404366756,0.000777,-0.000328,-8.1e-05,0.173,-0.123,-9.488,-3.057000000000001e-05,3.92e-06,1.7310000000000002e-05
1646352421.2467833,8676,1646352421,240985870,,0.010731596666499305,-0.006742929903554646,-0.9985105424517258,0.05306658404366756,-5.1e-05,5e-05,-0.000992,0.191,-0.15,-9.457,-3.049e-05,3.3700000000000003e-06,1.762e-05
1646352421.2713964,8677,1646352421,266259193,,0.010731714351192832,-0.0067427426008318195,-0.9985096161130296,0.05308401133216601,0.000498,1.8e-05,0.000707,0.17,-0.144,-9.455,-3.0480000000000003e-05,3.6499999999999998e-06,1.732e-05
1646352421.295393,8678,1646352421,290884971,,0.010723059625955149,-0.006743113588499861,-0.9985092396658487,0.05309279342170196,0.000126,0.000346,0.00037,0.184,-0.122,-9.502,-3.0390000000000002e-05,3.7400000000000006e-06,1.752e-05
1646352421.3207324,8679,1646352421,315909147,,0.0107228901369432,-0.006733932083386165,-0.9985069809078669,0.053136455132649314,-0.000724,0.000385,0.000494,0.198,-0.136,-9.479,-3.04e-05,3.55e-06,1.7230000000000003e-05
1646352421.346426,8680,1646352421,341415643,,0.010722831371891672,-0.006734025657998862,-0.9985074445728941,0.05312774151341578,-0.000382,-0.001356,-0.00087,0.173,-0.133,-9.447,-3.057000000000001e-05,3.38e-06,1.742e-05
1646352421.3711314,8681,1646352421,365879774,,0.010730559058438732,-0.006716227114822645,-0.9985079386957452,0.05311914680422904,-0.000843,0.000901,0.00073,0.208,-0.127,-9.435,-3.0220000000000005e-05,3.82e-06,1.7530000000000003e-05
1646352421.3952935,8682,1646352421,390783071,,0.010739331219274586,-0.006715668530575587,-0.9985073881836692,0.05312779219746787,-0.001,0.000434,-0.001449,0.188,-0.154,-9.44,-3.04e-05,3.3700000000000003e-06,1.7230000000000003e-05
1646352421.420632,8683,1646352421,415952205,,0.010739272613601997,-0.006715762248664493,-0.9985078517730979,0.05311907857468028,-0.000897,-0.000339,-0.000197,0.201,-0.136,-9.476,-3.0390000000000002e-05,3.7400000000000006e-06,1.752e-05
1646352421.4451656,8684,1646352421,440834760,,0.010748220569498462,-0.006714922202410608,-0.9985059099628331,0.05315386480492148,0.000695,-0.000114,-0.000343,0.196,-0.144,-9.452,-3.057000000000001e-05,3.29e-06,1.722e-05
1646352421.4715397,8685,1646352421,465839624,,0.010748449718351089,-0.006724011005790116,-0.9985077061343649,0.053118916545190374,-4.6e-05,0.000864,0.000649,0.2,-0.168,-9.445,-3.0480000000000003e-05,4.1900000000000005e-06,1.741e-05
1646352421.4959912,8686,1646352421,491169929,,0.010739912207287667,-0.0067241947052791825,-0.9985064021350415,0.05314512570951333,-0.000468,-0.00126,0.000962,0.192,-0.16,-9.477,-3.04e-05,3.2800000000000004e-06,1.7330000000000002e-05
1646352421.5212495,8687,1646352421,515865325,,0.010731374712397665,-0.006724378855887474,-0.9985050973717354,0.05317133483791668,0.000802,-0.000472,-0.0003,0.199,-0.131,-9.468,-3.057000000000001e-05,3.7400000000000006e-06,1.741e-05
1646352421.5459638,8688,1646352421,541197538,,0.010731374712397665,-0.006724378855887474,-0.9985050973717354,0.05317133483791668,-0.000395,-0.001396,-0.000893,0.181,-0.12,-9.45,-3.057000000000001e-05,3.6499999999999998e-06,1.771e-05
1646352421.5712602,8689,1646352421,566107988,,0.010722138563226511,-0.00671622414531089,-0.9985057068288475,0.05316278311078644,0.00127,0.000235,0.000885,0.171,-0.131,-9.489,-3.031e-05,3.92e-06,1.762e-05
1646352421.5953004,8690,1646352421,590770721,,0.010714182400576857,-0.0067249355092425895,-0.9985034143308282,0.05320632582280199,0.000776,-0.000277,0.00025,0.187,-0.134,-9.476,-3.049e-05,3.19e-06,1.713e-05
1646352421.621343,8691,1646352421,616049289,,0.010705874430487967,-0.006734208148244276,-0.9985039065616644,0.05319758711059793,0.000704,-0.000313,-0.000478,0.179,-0.14,-9.494,-3.0390000000000002e-05,3.830000000000001e-06,1.722e-05
1646352421.6459448,8692,1646352421,640998363,,0.010705874430487967,-0.006734208148244276,-0.9985039065616644,0.05319758711059793,0.000866,-5.9e-05,-0.000662,0.182,-0.134,-9.447,-3.057000000000001e-05,3.6499999999999998e-06,1.741e-05
1646352421.6707244,8693,1646352421,665808916,,0.01070569812566209,-0.006734488425073646,-0.9985052989290562,0.05317144632122483,-0.000303,-0.001872,-0.001223,0.191,-0.141,-9.458,-3.0480000000000003e-05,3.7400000000000006e-06,1.742e-05
1646352421.6957326,8694,1646352421,690935611,,0.010705815663027968,-0.006734301574366914,-0.9985043707601687,0.05318887351819058,0.001305,0.000735,-0.000642,0.189,-0.146,-9.497,-3.0480000000000003e-05,3.92e-06,1.751e-05
1646352421.7213469,8695,1646352421,715709209,,0.010705933197132669,-0.006734114721608797,-0.9985034422871196,0.05320630069895406,0.000123,-0.001651,-0.000555,0.197,-0.125,-9.452,-3.049e-05,3.2800000000000004e-06,1.7230000000000003e-05
1646352421.7461214,8696,1646352421,741226673,,0.01071458795037146,-0.006733742597747917,-0.9985038198806228,0.053197518734296574,-0.000461,-0.000685,-0.000149,0.217,-0.146,-9.455,-3.0480000000000003e-05,3.4700000000000002e-06,1.752e-05
1646352421.771527,8697,1646352421,766229391,,0.010714764235668577,-0.0067334620881837415,-0.9985024268306574,0.053223659484938894,-4.5e-05,-0.000491,0.000853,0.207,-0.15,-9.482,-3.04e-05,3.2800000000000004e-06,1.713e-05
1646352421.7956743,8698,1646352421,790914773,,0.010723883372663234,-0.006741803469303883,-0.9985027457054838,0.053214783942066635,0.000552,0.000228,0.000352,0.211,-0.156,-9.464,-3.0480000000000003e-05,3.5600000000000002e-06,1.742e-05
1646352421.8214839,8699,1646352421,816377878,,0.010733061267779438,-0.006750051344181571,-0.9985026000103289,0.053214621818504906,-0.000697,6.9e-05,0.000275,0.193,-0.144,-9.454,-3.049e-05,3.2800000000000004e-06,1.7330000000000002e-05
1646352421.8452432,8700,1646352421,840771436,,0.010741133911601185,-0.006741153264610507,-0.9985039647877331,0.05318850625965677,-0.00092,0.000534,-0.000464,0.196,-0.134,-9.443,-3.04e-05,3.55e-06,1.762e-05
1646352421.8716922,8701,1646352421,865926027,,0.01074131039090001,-0.006740872060072149,-0.9985025719737136,0.053214647014096055,0.000666,-0.001593,-0.001397,0.195,-0.113,-9.468,-3.066e-05,3.6499999999999998e-06,1.741e-05
1646352421.895898,8702,1646352421,890803813,,0.010732073742145496,-0.006732717840462004,-0.9985031820176636,0.05320609555562505,-0.000341,-0.000444,-0.000256,0.211,-0.13,-9.485,-3.0320000000000004e-05,3.1e-06,1.7140000000000002e-05
1646352421.9211893,8703,1646352421,916280031,,0.010740611001884504,-0.0067325334032332365,-0.9985044876974497,0.053179886398279405,0.000456,-0.000115,-0.00022,0.218,-0.132,-9.455,-3.057000000000001e-05,3.4700000000000002e-06,1.722e-05
1646352421.943216,8704,1646352421,940754890,,0.010740205595406815,-0.00672372608180489,-0.998504082290972,0.053188693719707844,-6e-06,-0.000492,0.000759,0.183,-0.122,-9.518,-3.0480000000000003e-05,3.4700000000000002e-06,1.722e-05
1646352421.970371,8705,1646352421,965738296,,0.010732014987689886,-0.006732811495216825,-0.9985036462904182,0.05319738196954021,0.000308,-0.000323,-0.000697,0.193,-0.146,-9.461,-3.0390000000000002e-05,4.01e-06,1.722e-05
1646352421.996461,8706,1646352421,990937709,,0.01072382453892087,-0.006741897052583898,-0.9985032100540588,0.053206070359789234,2e-05,-0.001073,0.000218,0.153,-0.131,-9.47,-3.057000000000001e-05,3.29e-06,1.752e-05
1646352422.0213792,8707,1646352422,16055345,,0.010706220978788707,-0.006743108598203061,-0.9985047760759297,0.05318006649435434,0.000122,-0.000919,-0.000827,0.183,-0.145,-9.447,-3.057000000000001e-05,3.4700000000000002e-06,1.732e-05
1646352422.0448344,8708,1646352422,40747880,,0.010697102138266822,-0.006734767048310602,-0.9985044573657668,0.05318894188968493,-0.00046,-0.000961,0.00041,0.142,-0.144,-9.454,-3.049e-05,3.19e-06,1.772e-05
1646352422.0704126,8709,1646352422,65880775,,0.0106977428391847,-0.006743200579300763,-0.9985030057328365,0.05321498930362847,0.000707,-0.000127,0.001401,0.173,-0.132,-9.465,-3.057000000000001e-05,3.6499999999999998e-06,1.751e-05
1646352422.0961874,8710,1646352422,91358661,,0.010706397509290012,-0.006742828307682474,-0.9985033834828624,0.05320620727003623,0.000377,0.001592,0.000317,0.195,-0.146,-9.459,-3.031e-05,3.3700000000000003e-06,1.7530000000000003e-05
1646352422.120898,8711,1646352422,116113662,,0.010706685062009419,-0.006751822195915897,-0.998504717193186,0.053179973062926135,-0.000246,0.000585,0.000324,0.2,-0.164,-9.477,-3.0480000000000003e-05,3.6499999999999998e-06,1.772e-05
1646352422.1466029,8712,1646352422,140922307,,0.010724812144220374,-0.006759230628778926,-0.998502627886735,0.05321459676688812,-0.000483,0.000978,0.000951,0.218,-0.134,-9.462,-3.031e-05,3.46e-06,1.743e-05
1646352422.170676,8713,1646352422,165797710,,0.010751476098369524,-0.006766453262231055,-0.9985018437677944,0.05322301066523494,8.3e-05,-4.3e-05,-0.000885,0.216,-0.164,-9.479,-3.04e-05,3.3700000000000003e-06,1.743e-05
1646352422.1953373,8714,1646352422,190935850,,0.010760189599582548,-0.006765987478013217,-0.9985017567246002,0.053222941962239666,0.000109,-0.000811,-0.001133,0.202,-0.145,-9.472,-3.04e-05,3.1e-06,1.7630000000000002e-05
1646352422.220485,8715,1646352422,215824604,,0.010769257327101687,-0.006764957825558577,-0.9984988814935154,0.053275154607374496,-0.000529,0.000714,-0.000955,0.22,-0.135,-9.474,-3.031e-05,3.55e-06,1.703e-05
1646352422.2464046,8716,1646352422,241138219,,0.01076019686187672,-0.006756522719147037,-0.9984980976288192,0.05329274430791011,-0.001751,0.001215,-0.00053,0.209,-0.125,-9.456,-3.04e-05,3.6400000000000003e-06,1.752e-05
1646352422.270641,8717,1646352422,265675306,,0.010759790679873246,-0.006747715282570456,-0.9984976914468158,0.05330155174448678,-0.00048,-0.001047,-0.000382,0.195,-0.115,-9.422,-3.049e-05,3.3700000000000003e-06,1.742e-05
1646352422.2952178,8718,1646352422,290778875,,0.010751018324667419,-0.006748275570215284,-0.9984982435991206,0.053292906763305704,-0.000265,0.000487,-0.000178,0.163,-0.124,-9.465,-3.0390000000000002e-05,3.92e-06,1.772e-05
1646352422.320664,8719,1646352422,315680265,,0.010741839784624134,-0.006740028418737124,-0.998498389425482,0.05329306905850557,0.000589,0.001186,0.00077,0.194,-0.111,-9.465,-3.031e-05,3.3700000000000003e-06,1.743e-05
1646352422.3458757,8720,1646352422,341071367,,0.010741780966371321,-0.006740122158716465,-0.9984988544572238,0.05328435551424067,-0.0001,0.000598,-7.8e-05,0.178,-0.159,-9.479,-3.0480000000000003e-05,4.1000000000000006e-06,1.722e-05
1646352422.3708267,8721,1646352422,365936279,,0.010733650280013394,-0.006749114682190764,-0.9984979523565138,0.053301757405567564,0.000305,0.00152,-0.00049,0.207,-0.141,-9.464,-3.03e-05,4.01e-06,1.752e-05
1646352422.39509,8722,1646352422,390797376,,0.010733420411869421,-0.006740026480566327,-0.9984961500217137,0.0533367051955672,0.00095,-0.000429,-0.000504,0.205,-0.124,-9.44,-3.04e-05,3.19e-06,1.7230000000000003e-05
1646352422.4203122,8723,1646352422,415803194,,0.010725290204298533,-0.00674901958207274,-0.9984952469285344,0.053354107113128955,0.001463,-0.001112,-0.000101,0.187,-0.148,-9.469,-3.04e-05,3.46e-06,1.7330000000000002e-05
1646352422.445994,8724,1646352422,440899133,,0.010725985207424744,-0.006766821022305624,-0.9984969907786663,0.053319065825745686,0.000952,0.002555,0.000742,0.199,-0.143,-9.483,-3.0390000000000002e-05,3.92e-06,1.762e-05
1646352422.4719117,8725,1646352422,465962409,,0.010743353080519404,-0.006765981537277936,-0.9984972823430756,0.05331021489280242,-0.000444,-0.000375,-3.7e-05,0.232,-0.132,-9.491,-3.04e-05,3.3700000000000003e-06,1.713e-05
1646352422.495957,8726,1646352422,491092205,,0.010752354407676273,-0.006774510023040309,-0.9984985316153685,0.053283911742593386,0.000612,0.001139,0.000236,0.222,-0.144,-9.454,-3.031e-05,3.46e-06,1.743e-05
1646352422.5208025,8727,1646352422,515799283,,0.010761879321513183,-0.006791658621449919,-0.998499256022134,0.05326622804257834,0.000453,9e-05,0.000768,0.205,-0.153,-9.47,-3.0390000000000002e-05,3.7400000000000006e-06,1.762e-05
1646352422.546118,8728,1646352422,541078090,,0.010770009586206008,-0.0067826668781028505,-0.9985001576638324,0.05324882598551354,-0.000112,0.002216,0.000192,0.194,-0.129,-9.502,-3.0480000000000003e-05,3.6499999999999998e-06,1.772e-05
1646352422.5706327,8729,1646352422,565872669,,0.010761820052701094,-0.006791752536305243,-0.9984997208196436,0.053257514490751987,0.000136,-0.001068,-0.000673,0.186,-0.137,-9.447,-3.04e-05,3.3700000000000003e-06,1.773e-05
1646352422.5960884,8730,1646352422,590986728,,0.010762630725797835,-0.00680936748735792,-0.9985005314927402,0.053239899539699355,0.000733,-8.5e-05,0.000742,0.2,-0.118,-9.48,-3.057000000000001e-05,3.19e-06,1.732e-05
1646352422.621659,8731,1646352422,616060018,,0.010762630725797835,-0.00680936748735792,-0.9985005314927402,0.053239899539699355,0.000837,0.000792,-0.000809,0.204,-0.124,-9.496,-3.049e-05,3.3700000000000003e-06,1.762e-05
1646352422.645259,8732,1646352422,640855550,,0.010752750915078392,-0.006792781648992416,-0.9985025950400613,0.053205302024241306,-0.001802,-5.7e-05,0.000369,0.202,-0.171,-9.485,-3.031e-05,3.2800000000000004e-06,1.734e-05
1646352422.6708796,8733,1646352422,665868282,,0.010752632357035514,-0.006792969318864923,-0.9985035234956805,0.053187874858265226,-0.000706,-0.002153,0.000647,0.194,-0.148,-9.472,-3.049e-05,3.3700000000000003e-06,1.7230000000000003e-05
1646352422.6958518,8734,1646352422,690977811,,0.010760881721123165,-0.006783790249989351,-0.9985034957000324,0.05318789983862252,-0.001211,0.000559,0.001099,0.2,-0.138,-9.458,-3.04e-05,3.55e-06,1.7330000000000002e-05
1646352422.720995,8735,1646352422,716049432,,0.010760940920451234,-0.006783696343322819,-0.998503031510025,0.053196613423393574,-0.0013,0.00023,0.000711,0.241,-0.141,-9.487,-3.057000000000001e-05,3.92e-06,1.751e-05
1646352422.7461798,8736,1646352422,740871429,,0.010770177929338019,-0.006791850379640875,-0.998502420899615,0.05320516416099913,-0.000276,0.00029,-0.000905,0.165,-0.156,-9.465,-3.031e-05,3.2800000000000004e-06,1.734e-05
1646352422.7705495,8737,1646352422,765888929,,0.010761523696347348,-0.006792222102823393,-0.9985020436665899,0.053213946670797055,-0.000756,0.000462,-0.000299,0.21,-0.142,-9.448,-3.049e-05,3.2800000000000004e-06,1.703e-05
1646352422.7957551,8738,1646352422,791094779,,0.010770296467849046,-0.0067916624035405364,-0.9985014921422408,0.0532225913077282,-0.001811,0.000996,-0.000392,0.188,-0.129,-9.468,-3.0480000000000003e-05,3.92e-06,1.742e-05
1646352422.82045,8739,1646352422,816055059,,0.010761059316648891,-0.006783508528439939,-0.9985021029018892,0.05321404058078133,0.000446,0.001091,-0.000728,0.178,-0.135,-9.438,-3.0390000000000002e-05,3.92e-06,1.722e-05
1646352422.8460708,8740,1646352422,840743064,,0.01076083141453133,-0.006774419333790307,-0.9985003039291159,0.053248988754918555,0.000487,-9e-05,0.000832,0.183,-0.128,-9.443,-3.031e-05,3.2800000000000004e-06,1.704e-05
1646352422.8715203,8741,1646352422,865953207,,0.010760307686702312,-0.006765799676246053,-0.9985008276569448,0.05324036909737444,-0.000473,5.5e-05,-0.000838,0.176,-0.139,-9.431,-3.04e-05,3.2800000000000004e-06,1.684e-05
1646352422.8956819,8742,1646352422,891076087,,0.01076861553151094,-0.006756526202782078,-0.9985003348914555,0.05324910792545705,0.000339,0.000429,-0.000259,0.206,-0.142,-9.48,-3.04e-05,3.3700000000000003e-06,1.743e-05
1646352422.9208686,8743,1646352422,915969848,,0.010768733453499015,-0.006756338253956101,-0.9984994053671181,0.05326653503577215,0.000188,3.8e-05,-0.000384,0.201,-0.137,-9.471,-3.04e-05,3.6400000000000003e-06,1.7230000000000003e-05
1646352422.9456222,8744,1646352422,940935850,,0.010769434429592823,-0.006764675884742765,-0.9984974864110492,0.053301295228703756,0.000266,-7.9e-05,-0.000554,0.176,-0.139,-9.434,-3.04e-05,3.2800000000000004e-06,1.773e-05
1646352422.9713123,8745,1646352422,966163158,,0.010768910330330473,-0.006756056326858224,-0.9984980105103117,0.05329267567081914,0.000761,0.001445,0.000707,0.212,-0.148,-9.477,-3.0390000000000002e-05,3.92e-06,1.762e-05
1646352422.9964201,8746,1646352422,991028308,,0.010769375396249245,-0.006764769865529872,-0.998497951514578,0.05329258169231884,0.000529,-0.000672,0.000767,0.213,-0.127,-9.444,-3.0480000000000003e-05,3.5600000000000002e-06,1.712e-05
1646352423.0201528,8747,1646352423,15759468,,0.010760661928394795,-0.006765236258578919,-0.9984980386290156,0.05329265040544918,-0.000559,-0.00035,-0.001303,0.192,-0.154,-9.478,-3.066e-05,3.5600000000000002e-06,1.7310000000000002e-05
1646352423.0449114,8748,1646352423,40718078,,0.010752413526019411,-0.0067744161907889785,-0.9984980665874994,0.05329262528404098,0.000861,0.00061,0.000982,0.199,-0.141,-9.519,-3.0480000000000003e-05,3.5600000000000002e-06,1.762e-05
1646352423.0706394,8749,1646352423,65807342,,0.010760949648814641,-0.006774231520820076,-0.9984993744068584,0.05326641586469329,-3.4e-05,0.000515,-0.000129,0.169,-0.14,-9.471,-3.0320000000000004e-05,3.19e-06,1.724e-05
1646352423.0957975,8750,1646352423,91079711,,0.010751999680422009,-0.006775073005713965,-0.9985013201857418,0.05323163040871793,-0.000575,0.000664,6.5e-05,0.19,-0.143,-9.48,-3.0390000000000002e-05,4.1000000000000006e-06,1.742e-05
1646352423.12315,8751,1646352423,116536855,,0.010751999680422009,-0.006775073005713965,-0.9985013201857418,0.05323163040871793,0.000298,7.7e-05,0.00026,0.175,-0.153,-9.46,-3.04e-05,3.55e-06,1.762e-05
1646352423.1464257,8752,1646352423,141123771,,0.010752227408247376,-0.006784161900940718,-0.9985031185468923,0.05319668227618952,0.000781,0.000765,-0.001445,0.213,-0.142,-9.468,-3.04e-05,3.3700000000000003e-06,1.6930000000000002e-05
1646352423.1707635,8753,1646352423,166109323,,0.010752049795619426,-0.0067844433912710896,-0.9985045108905959,0.05317054150744691,-0.001017,-0.000603,0.001276,0.212,-0.145,-9.475,-3.049e-05,3.2800000000000004e-06,1.7230000000000003e-05
1646352423.1957102,8754,1646352423,190994024,,0.010761168041678183,-0.0067927855655756,-0.9985048285735958,0.05316166515312693,-0.000805,0.001674,-5.4e-05,0.208,-0.154,-9.445,-3.0480000000000003e-05,3.830000000000001e-06,1.752e-05
1646352423.2193704,8755,1646352423,215735435,,0.01076181002345855,-0.0068012174225478735,-0.9985033771484759,0.05318771201770509,-0.000139,-0.000575,0.00086,0.206,-0.107,-9.432,-3.0480000000000003e-05,3.4700000000000002e-06,1.752e-05
1646352423.2461383,8756,1646352423,240751504,,0.010770059387546204,-0.006792038353672301,-0.998503349352828,0.053187736998062396,0.000246,-0.001523,0.000292,0.239,-0.124,-9.449,-3.0390000000000002e-05,3.7400000000000006e-06,1.742e-05
1646352423.2702382,8757,1646352423,265765428,,0.010787249353836587,-0.006791483936585153,-0.9985050308949428,0.05315274475327364,0.000775,-0.00042,-0.000199,0.207,-0.14,-9.479,-3.049e-05,3.3700000000000003e-06,1.713e-05
1646352423.2957888,8758,1646352423,291095018,,0.01078654873830345,-0.006783146861846516,-0.9985069448995666,0.053117984452542184,0.000747,0.0001,-0.000661,0.21,-0.127,-9.469,-3.066e-05,3.4700000000000002e-06,1.751e-05
1646352423.3205962,8759,1646352423,315688133,,0.010794739627656211,-0.00677406257226118,-0.9985073802092368,0.053109296176141726,-7.7e-05,0.00124,-0.000698,0.203,-0.139,-9.457,-3.057000000000001e-05,3.92e-06,1.751e-05
1646352423.346558,8760,1646352423,341661691,,0.010777312526600656,-0.006774992168791237,-0.9985075548353848,0.05310943374277372,9.8e-05,-0.000315,-0.000136,0.195,-0.129,-9.459,-3.04e-05,3.46e-06,1.7230000000000003e-05
1646352423.3722522,8761,1646352423,366529941,,0.010758722561221774,-0.006758870069127626,-0.9985097005394288,0.05307490454913334,0.00055,-0.000225,-0.000282,0.17,-0.131,-9.484,-3.056e-05,4.01e-06,1.741e-05
1646352423.3960567,8762,1646352423,391139507,,0.01074129541876967,-0.006759799050171047,-0.9985098745782657,0.05307504177317373,6e-05,0.001546,0.000662,0.173,-0.134,-9.482,-3.049e-05,3.3700000000000003e-06,1.792e-05
1646352423.420774,8763,1646352423,415740251,,0.010732059759397844,-0.006751643551588612,-0.9985104835705414,0.053066490390799026,0.000308,0.000865,-0.000175,0.185,-0.144,-9.47,-3.0480000000000003e-05,3.4700000000000002e-06,1.732e-05
1646352423.4464705,8764,1646352423,440969467,,0.010724154213705674,-0.006769722432897127,-0.998511378436739,0.053048944447044874,0.000256,-0.000209,-0.00018,0.191,-0.151,-9.452,-3.031e-05,3.3700000000000003e-06,1.7140000000000002e-05
1646352423.4709802,8765,1646352423,465944766,,0.010742162608497332,-0.006777320077376865,-0.998510219572892,0.053066140650666414,-2e-05,0.001588,0.000824,0.191,-0.152,-9.452,-3.056e-05,4.1000000000000006e-06,1.741e-05
1646352423.4965973,8766,1646352423,491199016,,0.010750590279599423,-0.0067678605691866055,-0.9985088020890491,0.05309230662391989,-0.002254,0.000296,-6e-06,0.199,-0.158,-9.461,-3.049e-05,3.3700000000000003e-06,1.7230000000000003e-05
1646352423.520593,8767,1646352423,515984296,,0.010768598974841443,-0.006775456966282364,-0.9985076420343976,0.05310950252002294,0.000602,0.002946,-8.1e-05,0.207,-0.147,-9.452,-3.066e-05,3.4700000000000002e-06,1.751e-05
1646352423.54532,8768,1646352423,541110754,,0.01077765759378854,-0.0067838938973960134,-0.998508422455164,0.05309191243946374,0.000934,0.001776,0.00033,0.188,-0.154,-9.413,-3.075e-05,3.29e-06,1.7310000000000002e-05
1646352423.5704675,8769,1646352423,565928220,,0.010786311955239186,-0.00678352337929473,-0.9985087984586823,0.053083129952602975,-0.000112,-0.000956,0.000683,0.211,-0.137,-9.474,-3.049e-05,3.3700000000000003e-06,1.683e-05
1646352423.595944,8770,1646352423,590892314,,0.010794966323155273,-0.006783153012240609,-0.9985091743089176,0.05307434745918083,-0.000304,-5.6e-05,-0.000573,0.227,-0.146,-9.437,-3.04e-05,3.55e-06,1.743e-05
1646352423.620291,8771,1646352423,615727424,,0.010794847933157381,-0.006783341418912446,-0.9985101004789476,0.053056920178395015,0.000592,-0.000825,-0.000742,0.196,-0.128,-9.443,-3.049e-05,3.19e-06,1.7330000000000002e-05
1646352423.645515,8772,1646352423,640862703,,0.01078589755325205,-0.006784182264939931,-0.9985120392595632,0.05302213442209787,0.000256,-0.001131,-0.00083,0.217,-0.144,-9.532,-3.04e-05,3.3700000000000003e-06,1.7330000000000002e-05
